UTC	Pack_count	q0	q1	q2	q3	RollRate	PitchRate	YawRate	Roll	Pitch	Yaw	FreeAccX	FreeAccY	FreeAccZ	Lat	Long	Height	VelX	VelY	VelZ	LoRaRSSI	LoRaSNR
30:02:13:15	228	-0.8642	-0.00087598	-0.00028042	0.50314	0.0020275	0.007431	-0.0035267	0.07058	0.0782759	-60.4164	0.00024724	-0.010925	-0.0090714	22.17494	120.8926	31.42645	-0.003273	0.0010977	0.0006876	-97	3
30:02:13:35	229	-0.86421	-0.00085815	-0.00026731	0.50313	0.0004046	0.007431	-0.0016785	0.0695726	0.0759484	-60.4142	-0.0066605	-0.020844	-0.011887	22.17494	120.8926	31.38869	-0.0026054	0.00089025	-0.0057411	-97	2.75
30:02:13:54	230	-0.86424	-0.00087375	-0.00029956	0.50308	0.00031877	0.0091324	-0.0043831	0.0692621	0.0800371	-60.408	-0.0033855	0.0091476	0.0018778	22.17494	120.8926	31.40143	-0.0013304	0.00018036	-0.0048065	-98	3
30:02:13:74	231	-0.86424	-0.00084257	-0.00028989	0.50308	0.0028095	0.0039177	0.00099754	0.0667314	0.077283	-60.4084	-0.039551	0.018738	0.012962	22.17494	120.8926	31.40756	-0.0042343	0.00020969	-0.0055771	-97	3
30:02:13:93	232	-0.86415	-0.00082082	-0.00026479	0.50323	0.0017614	0.0072212	-0.0054131	0.0660116	0.0735545	-60.428	0.0041351	-0.033508	-0.014877	22.17494	120.8926	31.41854	-0.0024796	0.0010452	-0.0049019	-97	2.5
30:02:14:13	233	-0.86412	-0.00083482	-0.00028279	0.50328	0.0024548	0.0038757	0.0018044	0.0663563	0.076148	-60.434	0.0097733	-0.023392	-0.014526	22.17494	120.8926	31.42301	-0.0016508	0.0017042	-0.0021114	-97	2.75
30:02:14:33	234	-0.8641	-0.00081264	-0.00034372	0.50332	0.0016165	0.0072556	-0.0052261	0.0606427	0.0809043	-60.4394	-0.028427	-0.00033092	0.00028896	22.17494	120.8926	31.38743	-0.0026474	0.0012474	-0.0085449	-97	2.75
30:02:14:52	235	-0.86421	-0.00079506	-0.00031856	0.50314	0.0035477	0.0034542	-7.10E-05	0.060369	0.0773866	-60.4158	-0.042755	0.0024529	0.0083466	22.17494	120.8926	31.39869	-0.0038605	0.00039721	-0.0028477	-97	3
30:02:14:72	236	-0.86409	-0.00082449	-0.00027393	0.50334	0.0046196	0.0040588	-0.0029049	0.0658387	0.074679	-60.4426	-0.0062141	-0.0095215	0.00034046	22.17494	120.8926	31.40889	-0.0026436	0.00054979	-0.0032997	-97	2.75
30:02:14:91	237	-0.86409	-0.00083537	-0.00026227	0.50334	0.0055428	0.0029335	-0.0030212	0.0675884	0.0741518	-60.4425	-0.026306	0.0030212	0.0016985	22.17494	120.8926	31.41677	-0.003027	0.0013704	-0.0033569	-97	2.75
30:02:15:11	238	-0.86409	-0.00080497	-0.00023878	0.50333	0.003849	0.0053558	-0.0028114	0.0659341	0.0700727	-60.4414	-0.04184	-0.027527	-0.0055351	22.17494	120.8926	31.38565	-0.0042915	0.0002625	-0.010406	-97	2.5
30:02:15:31	239	-0.86403	-0.00078326	-0.00034554	0.50345	0.0023861	0.0037479	0.0015535	0.0576169	0.0793987	-60.4566	-0.045471	0.016342	0.013077	22.17494	120.8926	31.39558	-0.0033092	0.0010405	-0.0098877	-97	2.5
30:02:15:50	240	-0.86404	-0.00076357	-0.00030789	0.50343	0.00019562	0.0076294	0.0010214	0.0578405	0.0745335	-60.454	-0.017853	-0.017242	0.0028973	22.17494	120.8926	31.40808	-0.0015726	0.0012474	-0.0078049	-97	2.75
30:02:15:70	241	-0.86391	-0.00078133	-0.00025914	0.50365	0.0069542	0.0023689	-0.0042725	0.0623927	0.0707475	-60.4837	-0.045532	-0.041351	-0.0018597	22.17494	120.8926	31.41681	-0.0020142	0.0022144	-0.0051994	-97	2.75
30:02:15:89	242	-0.8639	-0.00079539	-0.00027139	0.50367	0.0067787	0.00080681	-0.0016632	0.0630764	0.072774	-60.4861	-0.047241	0.020523	0.013847	22.17494	120.8926	31.43333	-0.0014629	0.0022488	-0.0007	-98	2.5
30:02:16:09	243	-0.86387	-0.00080102	-0.0003211	0.50372	0.00038266	0.0087509	-0.002924	0.06076	0.078022	-60.4922	-0.0078659	0.006176	-0.0023232	22.17494	120.8926	31.39814	-0.00033236	0.0020714	-0.0075989	-98	2.5
30:02:16:28	244	-0.86393	-0.00079443	-0.00025544	0.50361	0.0028839	0.0059357	-0.00078583	0.0639062	0.0711344	-60.478	-0.0029354	-0.031403	-0.010147	22.17494	120.8926	31.40907	0.00053978	0.00051069	-0.0050812	-97	2.75
30:02:16:48	245	-0.86393	-0.00080274	-0.00029193	0.50361	0.0053787	0.0054626	-0.0064888	0.0626244	0.0752263	-60.4776	-0.044128	0.0047531	0.015381	22.17494	120.8926	31.42067	-5.88E-05	0.0014696	-0.0045204	-97	3
30:02:16:68	246	-0.86393	-0.00080836	-0.00023752	0.50361	0.0074043	-0.00018132	-0.0010395	0.0663201	0.0701645	-60.4777	-0.019775	0.021576	0.010345	22.17494	120.8926	31.42873	-0.00037527	0.0011196	-0.0044518	-97	2.75
30:02:16:87	247	-0.8639	-0.00081797	-0.00026479	0.50367	0.00045776	0.0070915	-0.0011272	0.065692	0.0734231	-60.4859	0.033203	-0.012985	-0.0092239	22.17494	120.8926	31.3996	0.0019245	-0.00025749	-0.01136	-98	2.5
30:02:17:07	248	-0.86387	-0.00081822	-0.00031047	0.50372	0.0043335	0.0016298	0.0012779	0.0630763	0.0779623	-60.4923	-0.044098	0.0025196	0.0080566	22.17494	120.8926	31.41109	-0.00029063	-0.00021005	-0.0099792	-97	3.5
30:02:17:26	249	-0.86373	-0.00085339	-0.00020414	0.50395	0.0077858	0.0022373	-0.0054779	0.0726769	0.0694868	-60.5233	0.0051956	-0.0025768	-0.0044632	22.17494	120.8926	31.41753	-8.92E-05	0.0016584	-0.0093002	-98	3.25
30:02:17:46	250	-0.86362	-0.00085553	-0.00025797	0.50415	0.0043297	0.0029812	0.00017881	0.0697632	0.0749543	-60.5494	0.012665	0.031799	0.0083084	22.17494	120.8926	31.4255	0.0015354	0.0020313	-0.0042229	-97	3.5
30:02:17:66	251	-0.86372	-0.00083644	-0.00022341	0.50397	0.0051956	0.0008955	0.0023994	0.0698844	0.0704165	-60.5262	-0.011124	-0.016861	-0.0016966	22.17494	120.8926	31.42717	-0.00039339	0.00094461	-0.0038242	-97	3.25
30:02:17:85	252	-0.86368	-0.00080294	-0.00032768	0.50405	0.0052643	0.001195	0.00058031	0.0605409	0.0788076	-60.536	-0.071167	0.0010672	0.017624	22.17494	120.8926	31.38843	-0.00030851	0.0008359	-0.012253	-97	3.5
30:02:18:05	253	-0.86361	-0.0007998	-0.00024399	0.50415	0.0046997	0.0043678	-0.0052071	0.0650543	0.0703519	-60.5505	0.00037622	-0.033783	-0.014305	22.17494	120.8926	31.40361	0.00090122	0.0020142	-0.0067673	-97	3.25
30:02:18:25	254	-0.86359	-0.00082386	-0.00025895	0.50419	0.0057526	0.001565	-0.00080252	0.0665687	0.0732254	-60.5551	-1.54E-05	0.028198	0.01355	22.17494	120.8926	31.40538	0.0004673	0.0021324	-0.0094528	-98	3
30:02:18:44	255	-0.86355	-0.00079504	-0.00025027	0.50427	0.0036869	0.0031567	-0.00011653	0.0642109	0.070707	-60.5659	-0.037354	-0.0053291	0.005928	22.17494	120.8926	31.41699	-0.00093794	0.0038719	-0.0059853	-97	3
30:02:18:64	256	-0.86358	-0.00078011	-0.00032786	0.50422	0.0026474	0.005188	-0.0025749	0.0582557	0.0775183	-60.5588	-0.072449	-0.023438	0.0075912	22.17494	120.8926	31.42442	-0.0013247	0.0018816	-0.0033455	-97	3.25
30:02:18:83	257	-0.86356	-0.00078585	-0.00026917	0.50424	0.0071602	0.0030804	-0.0063095	0.0622119	0.0720437	-60.5623	-0.053162	0.00066137	0.017166	22.17494	120.8926	31.38745	-0.0022087	0.0025654	-0.010498	-97	3
30:02:19:03	258	-0.86349	-0.00079794	-0.00026285	0.50437	0.0074844	0.0051308	-0.0085678	0.0637633	0.0721263	-60.5786	-0.0087814	-0.027451	-0.0027752	22.17494	120.8926	31.40296	-0.0014076	0.0024185	-0.0056038	-97	2.5
30:02:19:23	259	-0.86342	-0.00081319	-0.00019855	0.50448	0.010231	0.00016356	-0.0040627	0.0689804	0.0666546	-60.5934	-0.027405	0.00073481	0.0072021	22.17494	120.8926	31.40405	-0.002367	0.0028954	-0.005455	-97	2.5
30:02:19:42	260	-0.86339	-0.00080081	-0.00022192	0.50453	0.0052567	0.0021896	-0.0021839	0.0663997	0.0682555	-60.6006	-0.033722	0.0074425	0.0025635	22.17494	120.8926	31.41467	-0.0029125	0.0043335	-0.0024967	-98	2.75
30:02:19:62	261	-0.86337	-0.00080401	-0.00026704	0.50458	0.0022068	0.0029678	0.0014915	0.0641039	0.072908	-60.6066	-0.0016241	-0.0033226	-0.0039043	22.17494	120.8926	31.37915	-0.0024548	0.0038719	-0.0091248	-97	2.5
30:02:19:82	262	-0.86345	-0.00079718	-0.00027868	0.50444	0.0031281	0.0057564	-0.0022907	0.0627668	0.0736543	-60.5882	-0.019226	-0.0059395	0.00014305	22.17494	120.8926	31.38047	-0.002594	0.0019722	-0.011261	-97	1.5
30:02:20:01	263	-0.86332	-0.00081062	-0.00023495	0.50465	0.0064392	0.00068283	-0.00068569	0.0666065	0.0701211	-60.6168	-0.033844	0.0071182	0.0063286	22.17494	120.8926	31.38599	-0.0036201	0.0037479	-0.0099411	-98	3
30:02:20:21	264	-0.86332	-0.00082297	-0.0002146	0.50465	0.0046501	0.0065155	-0.0053177	0.0690057	0.0688217	-60.6167	-0.014183	0.0037365	0.0051422	22.17494	120.8926	31.39321	-0.0043983	0.0031166	-0.0067177	-98	1.5
30:02:20:41	265	-0.86336	-0.00079343	-0.00025615	0.50459	0.0011921	0.0054436	0.0013971	0.0636857	0.0712197	-60.6087	-0.012787	-0.012634	0.00051689	22.17494	120.8926	31.40074	-0.0030804	0.002758	-0.0020981	-98	1.25
30:02:20:60	266	-0.86333	-0.00081169	-0.00029945	0.50465	0.0012627	0.0081253	-0.0043716	0.0629838	0.0765636	-60.6156	-0.015793	0.0050278	0.0078659	22.17494	120.8926	31.36388	-0.0028706	0.0029144	-0.0094681	-99	2.5
30:02:20:80	267	-0.8632	-0.00081923	-0.00028621	0.50485	0.0050468	0.0020199	-0.00047112	0.0644775	0.0757046	-60.6433	-0.02243	-0.0027294	0.0023918	22.17494	120.8926	31.36896	-0.0027714	0.0035477	-0.0056496	-97	4.5
30:02:20:99	268	-0.86326	-0.00080329	-0.00023516	0.50477	0.0054016	0.0058632	-0.004467	0.0658606	0.0697264	-60.6315	-0.0149	-0.0055313	0.009613	22.17494	120.8926	31.38526	-0.0041199	0.0028419	-0.00081682	-97	3
30:02:21:19	269	-0.86321	-0.00079237	-0.00023612	0.50484	0.0036201	0.0034142	0.00094986	0.0647192	0.0691952	-60.641	0.015419	0.010353	-0.0022469	22.17494	120.8926	31.38964	-0.0032368	0.0030899	-0.0016556	-98	2.5
30:02:21:39	270	-0.86316	-0.00079399	-0.0003453	0.50492	-0.0015478	0.010864	-0.0030918	0.0585554	0.0800947	-60.6524	-0.034241	-0.0090408	0.004921	22.17494	120.8926	31.3982	-0.0019779	0.0028458	-0.0014095	-97	2.75
30:02:21:58	271	-0.86317	-0.0007741	-0.00031679	0.50491	-0.0021248	0.010773	-0.0028896	0.0582391	0.0761231	-60.6511	-0.03598	-0.01226	0.0030422	22.17494	120.8926	31.36737	-0.0025234	0.0018816	-0.0073738	-97	3.25
30:02:21:78	272	-0.86309	-0.00079449	-0.00026935	0.50505	0.0031471	0.0064278	-0.0061684	0.0629894	0.0726199	-60.6693	-0.019226	-0.017593	-0.0011034	22.17494	120.8926	31.37488	-0.002121	0.0029316	-0.0050735	-98	2.75
30:02:21:98	273	-0.86302	-0.00082339	-0.00027922	0.50518	0.0026207	0.0049744	-0.0018682	0.0652653	0.0752785	-60.6861	-0.015419	-0.0037575	0.0078506	22.17494	120.8926	31.38451	-0.0013027	0.0029125	-0.001976	-97	2.5
30:02:22:17	274	-0.86296	-0.00082212	-0.00021459	0.50528	0.0025482	0.0058174	-0.0015812	0.0688723	0.0688217	-60.6997	-0.0073586	0.010956	0.0063324	22.17494	120.8926	31.38424	-0.0021057	0.003994	-0.0027885	-97	2.5
30:02:22:37	275	-0.86291	-0.00083077	-0.00027584	0.50536	0.0012932	0.0049477	0.0018034	0.0661735	0.0753858	-60.711	-0.009491	-0.0059433	-0.0022984	22.17494	120.8926	31.34865	-0.0020256	0.0028706	-0.010582	-97	2.25
30:02:22:56	276	-0.8629	-0.00080798	-0.00027981	0.50537	0.0025864	0.0032864	-7.75E-05	0.0636898	0.0744592	-60.7117	-0.015137	-0.009201	0.0035114	22.17494	120.8926	31.3516	-0.0017643	0.0024357	-0.010674	-97	2.5
30:02:22:76	277	-0.86275	-0.00082336	-0.00027254	0.50563	0.0069923	0.0019217	-0.0055504	0.065609	0.0746505	-60.7462	-0.030807	-0.031525	0.00085163	22.17494	120.8926	31.35378	-0.002533	0.0038929	-0.011658	-97	2.5
30:02:22:96	278	-0.86279	-0.00083261	-0.00021986	0.50557	0.0057106	0.0037231	-0.0040894	0.0695811	0.0699735	-60.7384	-0.020538	-0.009079	0.0034218	22.17494	120.8926	31.36242	-0.002573	0.0032158	-0.010262	-97	2.5
30:02:23:15	279	-0.86271	-0.00084038	-0.00030035	0.50571	0.0030937	0.0060349	-0.0044098	0.0656744	0.078392	-60.7564	-0.012856	-0.0095062	0.0057945	22.17494	120.8926	31.36922	-0.001297	0.0039787	-0.0086517	-98	2.25
30:02:23:35	280	-0.8627	-0.0008266	-0.00031074	0.50572	0.0080719	0.0012579	-0.0018167	0.0637082	0.0786218	-60.7583	-0.066833	-0.005825	0.021378	22.17494	120.8926	31.33402	-0.0043945	0.0029564	-0.016113	-97	2.75
30:02:23:54	281	-0.86266	-0.00080959	-0.00032151	0.50579	0.0041275	0.0069962	-0.005394	0.0613966	0.0787052	-60.7673	-0.069702	-0.0046463	0.019791	22.17494	120.8926	31.34024	-0.0017977	0.0024261	-0.011421	-97	2.5
30:02:23:74	282	-0.86262	-0.00083379	-0.00026849	0.50586	0.0063782	0.0015707	-0.0024719	0.0668557	0.074872	-60.7763	-0.026474	-0.033356	-0.015961	22.17494	120.8926	31.34353	-0.0022259	0.0031853	-0.0048828	-97	2.5
30:02:23:94	283	-0.86257	-0.0008784	-0.00028003	0.50594	0.0079422	0.0034065	-0.0053787	0.0705894	0.0786056	-60.7871	-0.040192	-0.0058937	0.0071449	22.17494	120.8926	31.3541	-0.0026207	0.0036755	-0.00081062	-97	2.25
30:02:24:13	284	-0.86252	-0.00085764	-0.00032957	0.50603	0.0065308	0.0047188	-0.0053062	0.0656566	0.0823054	-60.7992	-0.081055	-0.0036793	0.022537	22.17494	120.8926	31.36097	-0.0032291	0.0036983	0.0012321	-97	2.75
30:02:24:33	285	-0.8625	-0.0008841	-0.00023917	0.50606	0.0058365	0.0056496	-0.0057259	0.0735101	0.0749081	-60.8041	-0.0012474	-0.036407	-0.01123	22.17494	120.8926	31.33296	-0.0028725	0.0030384	-0.004055	-97	2.75
30:02:24:52	286	-0.86249	-0.00088993	-0.00031723	0.50607	0.0051994	0.0035076	-0.00033307	0.0695595	0.0829618	-60.8048	-0.0050392	-0.021088	-0.005928	22.17494	120.8926	31.34088	-0.00048971	0.0024414	-0.0027065	-97	3.25
30:02:24:72	287	-0.86249	-0.00087695	-0.00026971	0.50608	0.0093002	0.0031204	-0.0065079	0.0710313	0.077513	-60.8059	-0.055084	0.018036	0.01136	22.17494	120.8926	31.34189	-0.0010433	0.0020752	-0.0038185	-97	2.75
30:02:24:92	288	-0.86244	-0.00093857	-0.0002178	0.50615	0.01107	-0.0025158	-0.0015078	0.0801254	0.0759629	-60.8155	0.022552	-0.0019779	-0.013626	22.17494	120.8926	31.34588	-0.0021114	0.0010519	-0.0026913	-97	2.75
30:02:25:11	289	-0.86244	-0.00092596	-0.00023327	0.50616	0.0072441	0.0038548	-0.0017376	0.0779809	0.0767607	-60.8166	0.029617	-0.013016	-0.0030041	22.17494	120.8926	31.3148	-0.0012865	-0.0010948	-0.0090866	-96	2.25
30:02:25:31	290	-0.86239	-0.00088442	-0.00031149	0.50625	0.0078659	0.00025535	-1.09E-05	0.0693308	0.0820886	-60.8284	-0.050385	0.0069389	0.011467	22.17494	120.8926	31.31159	9.97E-05	0.00038981	-0.011978	-96	2.75
30:02:25:51	291	-0.86233	-0.00092769	-0.00020525	0.50634	0.01133	0.00067568	-0.011215	0.0797618	0.0741092	-60.8413	-0.01709	-0.010071	0.0018187	22.17494	120.8926	31.31046	-0.00072861	0.00040889	-0.011215	-97	4.25
30:02:25:70	292	-0.86221	-0.00099013	-0.00016603	0.50655	0.010551	0.00094128	-0.0068398	0.0881895	0.0738768	-60.8681	0.080139	0.023041	-0.02269	22.17494	120.8926	31.31341	-0.0021954	-0.00021446	-0.0058975	-98	4.75
30:02:25:90	293	-0.86227	-0.00094668	-0.00018708	0.50644	0.0061531	0.0035858	0.0013142	0.0826839	0.0734253	-60.8541	0.068848	0.037872	-0.011559	22.17494	120.8926	31.31674	-0.0013609	-0.00014567	-0.0035591	-97	2.75
30:02:26:09	294	-0.86225	-0.00090871	-0.00030063	0.50649	0.0076828	0.0043106	-0.0054741	0.0723374	0.0824449	-60.8604	-0.049164	-0.020386	0.0043259	22.17494	120.8926	31.28419	-0.0029106	-0.0013695	-0.0093689	-97	2.25
30:02:26:29	295	-0.86211	-0.00090744	-0.00026872	0.50672	0.0097961	0.0021172	-0.010376	0.0740436	0.0792384	-60.891	-0.04068	-0.0065804	0.010254	22.17494	120.8926	31.28637	-0.002737	0.00073957	-0.0048561	-96	3
30:02:26:49	296	-0.86212	-0.00094013	-0.00021885	0.50671	0.007843	0.0012159	-0.0062752	0.0801695	0.0762091	-60.8896	0.027939	0.036163	0.013229	22.17494	120.8926	31.2872	-0.0001663	0.0012016	-0.0060883	-97	2.25
30:02:26:68	297	-0.86209	-0.00094599	-0.00022455	0.50676	0.0063667	0.0026569	-0.0025406	0.0804136	0.0771162	-60.896	0.034393	-0.0053902	-0.0093613	22.17494	120.8926	31.28937	-0.0019798	-0.00014079	-0.0075531	-98	2.75
30:02:26:88	298	-0.86205	-0.00090592	-0.00030015	0.50682	0.0072975	0.0037098	-0.0053864	0.0720582	0.0822628	-60.9045	-0.03183	-0.018402	-0.0037441	22.17494	120.8926	31.29656	-0.0024624	0.00042486	-0.0035381	-96	3.25
30:02:27:07	299	-0.86205	-0.00087702	-0.00032537	0.50682	0.0055275	0.00036001	-0.0013666	0.0677389	0.0830759	-60.9044	-0.045898	0.0069046	0.011551	22.17494	120.8926	31.27155	-0.0022717	0.00020802	-0.0084305	-97	3
30:02:27:27	300	-0.862	-0.00091153	-0.00029285	0.50691	0.0026627	0.006649	-0.0083008	0.0730278	0.0818751	-60.9165	-0.0080719	-0.023346	-0.010849	22.17494	120.8926	31.28346	0.00050735	0.0017462	-0.0022907	-97	3
30:02:27:47	301	-0.86216	-0.00094239	-0.00026364	0.50664	0.0039368	0.0039558	9.67E-05	0.0777989	0.0807587	-60.8805	0.013565	0.021805	0.010956	22.17494	120.8926	31.2914	-0.00057936	-0.00056934	-0.00071335	-97	3.25
30:02:27:66	302	-0.86214	-0.00092379	-0.00032836	0.50668	0.0056992	0.0030003	-0.00054216	0.0721998	0.0860763	-60.8855	-0.063354	-0.011215	0.010887	22.17494	120.8926	31.29955	-0.0041428	-0.00085306	0.0032463	-98	2.5
30:02:27:86	303	-0.86211	-0.00090895	-0.00026922	0.50673	0.0082092	-0.0011797	-0.00068617	0.0741628	0.079376	-60.8922	-0.041473	-0.042328	-0.0051117	22.17494	120.8926	31.2752	-0.0050659	-0.0023785	-0.0017567	-97	2.75
30:02:28:05	304	-0.86205	-0.00087306	-0.00032481	0.50682	0.0063972	0.0042534	-0.0073853	0.0673798	0.0827905	-60.9045	-0.076904	-0.018295	0.0066071	22.17494	120.8926	31.27754	-0.0028439	-0.00075674	-0.0052795	-97	3
30:02:28:25	305	-0.86212	-0.00086698	-0.00036847	0.5067	0.0043945	0.0021496	-0.0020638	0.0642559	0.0867422	-60.8891	-0.062561	-0.0024509	0.020172	22.17494	120.8926	31.28638	-0.001792	-0.0010719	-0.0034618	-98	2
30:02:28:45	306	-0.86212	-0.00088968	-0.00025864	0.50671	0.0099945	0.00059462	-0.0044479	0.0728745	0.0772102	-60.8899	-0.029602	-0.027832	0.0040359	22.17494	120.8926	31.28887	-0.0049744	-0.0025864	-0.00017226	-97	2.25
30:02:28:64	307	-0.86206	-0.00086388	-0.00033127	0.50681	0.0070915	0.0025501	-0.0029716	0.0660999	0.0828949	-60.9028	-0.056274	-0.024857	0.0094376	22.17494	120.8926	31.29484	-0.0040894	-0.0021629	0.0010462	-97	2
30:02:28:84	308	-0.86208	-0.00082816	-0.00032306	0.50677	0.0051918	0.002924	-0.0017138	0.0630513	0.0800071	-60.8974	-0.06958	-0.023743	0.013458	22.17494	120.8926	31.26812	-0.0030231	-0.0023556	-0.0035648	-97	2.25
30:02:29:03	309	-0.86199	-0.00082325	-0.000382	0.50693	0.0081635	-0.00081396	-0.0020351	0.0591274	0.0855553	-60.9195	-0.12585	-0.033417	0.022873	22.17494	120.8926	31.27518	-0.0035152	-0.001709	-0.0014887	-97	2.5
30:02:29:23	310	-0.86199	-0.00082127	-0.00036476	0.50692	0.0067253	0.00086737	-0.0029011	0.0599348	0.0837365	-60.9177	-0.077881	-0.017609	0.01622	22.17494	120.8926	31.28133	-0.002964	-0.00144	-0.00066996	-97	2.75
30:02:29:43	311	-0.86193	-0.00084005	-0.00033918	0.50703	0.011597	-0.00077486	-0.0040855	0.0632639	0.0823088	-60.9329	-0.066956	-0.0037384	0.016281	22.17494	120.8926	31.29158	-0.0050888	-0.0023708	0.0010624	-98	2.75
30:02:29:62	312	-0.86196	-0.00078395	-0.00036068	0.50698	0.0050468	0.0017748	0.0016375	0.0564798	0.0811693	-60.9259	-0.10199	-0.0096512	0.021301	22.17494	120.8926	31.26859	-0.0045052	-0.0029907	-0.0032997	-99	2.25
30:02:29:82	313	-0.86192	-0.00082624	-0.00041363	0.50705	0.0063782	0.0048218	-0.0054512	0.0575724	0.0888612	-60.935	-0.11176	-0.041748	0.023621	22.17494	120.8926	31.276	-0.0038242	-0.0033531	-0.0011253	-99	2.75
30:02:30:01	314	-0.86191	-0.00083909	-0.00030169	0.50706	0.010201	-0.00013685	-0.0052795	0.0653454	0.0785525	-60.9367	-0.072021	-0.018356	0.012451	22.17494	120.8926	31.28666	-0.0033398	-0.0020847	0.0032063	-98	2.75
30:02:30:21	315	-0.86187	-0.00086775	-0.00031765	0.50713	0.0080719	0.0018148	-0.0037613	0.067243	0.0817991	-60.945	-0.01545	-0.023575	0.0011063	22.17494	120.8926	31.29142	-0.0024433	-0.0019207	0.0044899	-98	3
30:02:30:41	316	-0.861878872	-0.000887525	-2.50E-09	-3.41E+21	-0.46191	-0.0062828	-0.0011072	8.40E-29	-2.98E-23	180	-0.058014	-0.015511	0.011093	22.17494	120.8926	31.3038	-0.0036469	-0.0030117	0.0083542	-95	-3
30:02:30:60	317	-0.86182	-0.00091487	-0.00035091	0.50721	0.013237	0.00064135	-0.0080261	0.069955	0.0878285	-60.956	-0.079102	-0.0023289	0.013626	22.17494	120.8926	31.28107	-0.0050125	-0.0037918	0.0029907	-98	2.25
30:02:30:80	318	-0.86171	-0.00085953	-0.00035134	0.5074	0.0081863	-0.00091553	-0.00049067	0.0644456	0.0846688	-60.9813	-0.074524	-0.015808	0.011307	22.17494	120.8926	31.28823	-0.0026779	-0.0028687	0.001564	-98	2.5
30:02:31:00	319	-0.86174	-0.00090503	-0.00034125	0.50734	0.0088043	0.0015593	-0.0042648	0.0695314	0.0863142	-60.974	-0.039612	-0.01458	0.0078049	22.17494	120.8926	31.29852	-0.001339	-0.0022449	0.0014753	-98	2.5
30:02:31:19	320	-0.86177	-0.00091032	-0.00036497	0.5073	0.0083618	0.00042105	-0.00041032	0.0686783	0.088961	-60.9687	-0.053864	0.0027809	0.0080719	22.17494	120.8926	31.30925	-0.0026627	-0.003088	5.61E-05	-97	2.5
30:02:31:39	321	-0.86176	-0.00090348	-0.00030338	0.50732	0.011284	0.00037193	-0.0044289	0.0715821	0.0824827	-60.9712	-0.052643	-0.0088577	0.0053215	22.17494	120.8926	31.32165	-0.0032063	-0.0022449	0.0032654	-98	2.5
30:02:31:58	322	-0.86172	-0.00090814	-0.00032071	0.50738	0.011162	-0.0023518	-0.0010223	0.0710294	0.0844695	-60.9786	-0.048462	0.015572	0.0091934	22.17494	120.8926	31.29845	-0.0027637	-0.002737	-0.0014257	-98	3
30:02:31:78	323	-0.86178	-0.00088409	-0.00030979	0.50728	0.0071983	0.0029202	-0.0053825	0.069299	0.0819846	-60.9654	-0.034454	0.00086594	0.0084076	22.17494	120.8926	31.30951	-0.0025692	-0.0019321	0.0011358	-97	2.25
30:02:31:98	324	-0.86169	-0.00090731	-0.00026527	0.50743	0.0094299	-0.001976	-0.0023556	0.0741653	0.0789506	-60.9853	-0.015213	-0.0067787	0.0078583	22.17494	120.8926	31.31757	-0.0025368	-0.00098515	0.001214	-97	2.5
30:02:32:17	325	-0.86172	-0.0008955	-0.0003202	0.50739	0.0069046	0.0026417	-0.0028038	0.0698095	0.083685	-60.9797	-0.033478	0.015869	0.016724	22.17494	120.8926	31.3277	-0.0027962	-0.0027237	4.49E-05	-97	3.25
30:02:32:37	326	-0.8617	-0.00092352	-0.00028737	0.50741	0.0074043	0.0016718	-0.002327	0.0744827	0.0820741	-60.9833	0.0027523	0.016968	0.0023327	22.17494	120.8926	31.30701	-0.0025826	-0.003437	-0.004364	-98	2.75
30:02:32:57	327	-0.8617	-0.00090732	-0.00027799	0.50742	0.0070724	0.0032864	-0.0050583	0.0734283	0.080207	-60.9844	-0.028961	-0.011169	-0.0039368	22.17494	120.8926	31.32241	-0.0035973	-0.0030518	3.58E-06	-97	2.75
30:02:32:76	328	-0.86167	-0.00089041	-0.00032761	0.50747	0.0062027	0.0033531	-0.0050011	0.0688684	0.084127	-60.9906	-0.041504	0.00089359	0.011314	22.17494	120.8926	31.33316	-0.0039291	-0.001668	0.0041428	-97	2.5
30:02:32:96	329	-0.86171	-0.00091974	-0.00030072	0.50741	0.0069046	0.0018425	-0.0036259	0.0733337	0.083172	-60.9823	-0.02121	0.030014	0.02533	22.17494	120.8926	31.34532	-0.0042877	-0.0023632	0.0048447	-96	3
30:02:33:16	330	-0.86169	-0.00092574	-0.00032198	0.50744	0.0066605	0.0048027	-0.007122	0.0726877	0.0856227	-60.9863	-0.0020237	-0.00032115	-0.00098991	22.17494	120.8926	31.35022	-0.0028267	-0.0032711	0.0015068	-96	2.5
30:02:33:35	331	-0.8617	-0.00090442	-0.00033013	0.50741	0.0071754	0.00081873	-0.00026011	0.0701108	0.0851855	-60.9829	-0.04126	-0.023422	-0.0017185	22.17494	120.8926	31.3352	-0.0038147	-0.0048637	-0.0022392	-97	2.75
30:02:33:55	332	-0.86162	-0.00092778	-0.00030857	0.50756	0.0091934	0.00038958	-0.0056419	0.0736565	0.0844285	-61.0029	-0.023697	-0.00046778	-0.0048447	22.17494	120.8926	31.34404	-0.0043678	-0.0029278	-0.0017605	-97	2.5
30:02:33:74	333	-0.86165	-0.00089396	-0.00034706	0.50751	0.0043678	0.0018101	-0.00017524	0.068084	0.0862563	-60.9956	-0.026077	-0.0025349	0.00811	22.17494	120.8926	31.35363	-0.0036449	-0.0030899	-0.0020123	-98	2.75
30:02:33:94	334	-0.8616	-0.00091436	-0.00036112	0.50758	0.004097	0.0061378	-0.0061417	0.0692721	0.0888379	-61.0061	-0.019028	-0.013268	0.0019798	22.17494	120.8926	31.36798	-0.003231	-0.003994	0.0015039	-97	2.75
30:02:34:14	335	-0.86167	-0.00090016	-0.00033195	0.50748	0.0056381	0.0017376	-0.001543	0.069578	0.0851237	-60.9917	-0.026321	0.013847	0.026749	22.17494	120.8926	31.37685	-0.0028572	-0.0031452	0.0023899	-98	2.5
30:02:34:33	336	-0.86166	-0.00090174	-0.00032473	0.50749	0.0055923	0.0054665	-0.0066376	0.0701516	0.0845035	-60.9937	-0.020737	-0.016785	-0.00142	22.17494	120.8926	31.35897	-0.0034504	-0.0045547	-0.0013981	-97	2.5
30:02:34:53	337	-0.86167	-0.00087811	-0.00030648	0.50747	0.0075417	-0.00092173	6.96E-05	0.0688831	0.0813254	-60.9904	-0.034271	-0.0090866	0.0035191	22.17494	120.8926	31.367	-0.0041885	-0.004425	-0.003109	-98	3
30:02:34:72	338	-0.86163	-0.00086889	-0.00036318	0.50753	0.0052986	0.0047798	-0.0045128	0.064669	0.0863926	-60.9991	-0.048462	-0.0016518	0.0093613	22.17494	120.8926	31.37813	-0.0037251	-0.0045204	-0.0012159	-97	2.5
30:02:34:92	339	-0.86167	-0.00086054	-0.00033215	0.50747	0.0053062	0.0036526	-0.0030327	0.0656542	0.0828388	-60.991	-0.043335	-0.022278	0.0057945	22.17494	120.8926	31.38712	-0.0031567	-0.002943	-0.0001688	-98	3
30:02:35:12	340	-0.86165	-0.00089825	-0.00031461	0.5075	0.005806	0.0047493	-0.0062485	0.0703954	0.0833021	-60.9953	-0.030945	-0.039795	-0.0029488	22.17494	120.8926	31.36839	-0.0040359	-0.0043068	-0.0039711	-97	2.75
30:02:35:31	341	-0.86165	-0.00089877	-0.00035299	0.5075	0.0056152	0.0032997	-0.0029697	0.0682136	0.0871223	-60.9955	-0.050323	-0.0016222	0.0045204	22.17494	120.8926	31.38212	-0.0038471	-0.0046997	-0.00084352	-97	2.75
30:02:35:51	342	-0.86164	-0.00087957	-0.00032122	0.50752	0.0067406	0.0041428	-0.0052948	0.0681654	0.0828696	-60.9972	-0.059204	-0.031113	-0.0015278	22.17494	120.8926	31.3928	-0.0036011	-0.0051155	-0.0012732	-98	3
30:02:35:71	343	-0.86158	-0.00086687	-0.00031221	0.50762	0.0070686	-0.00095367	0.0010185	0.067425	0.0812491	-61.0107	-0.035583	-0.014954	-0.0019169	22.17494	120.8926	31.3978	-0.0029087	-0.0043221	-3.60E-05	-98	2.75
30:02:35:90	344	-0.86156	-0.00088478	-0.00027022	0.50766	0.0065346	0.0031261	-0.0029774	0.0716327	0.0781487	-61.0161	-0.0053596	-0.034363	-0.015388	22.17494	120.8926	31.40289	-0.0019398	-0.0036373	0.0018749	-97	3
30:02:36:10	345	-0.86155	-0.00089614	-0.00029393	0.50767	0.0066528	0.0019932	-0.0024929	0.0713735	0.0811513	-61.0181	-0.025879	-0.017609	0.00029182	22.17494	120.8926	31.37962	-0.0029526	-0.0038033	-0.0025978	-98	3
30:02:36:29	346	-0.86156	-0.00085078	-0.00031056	0.50765	0.0058594	0.0019503	-0.00010645	0.0659295	0.0801525	-61.0153	-0.049683	-0.0086212	0.0084991	22.17494	120.8926	31.38567	-0.0025635	-0.004528	-0.0041771	-97	2.75
30:02:36:49	347	-0.8615	-0.00088051	-0.00033697	0.50776	0.0072098	0.0033894	-0.0034962	0.0673173	0.084498	-61.0298	-0.046875	-0.010986	-0.0052261	22.17494	120.8926	31.39268	-0.0041809	-0.0057182	-0.0062752	-99	3
30:02:36:69	348	-0.86154	-0.00087196	-0.00025193	0.50769	0.0072899	0.0028057	-0.0027695	0.0714284	0.0755998	-61.0203	-0.023209	-0.008522	-0.0057259	22.17494	120.8926	31.39378	-0.0031643	-0.0044098	-0.0067673	-97	2.75
30:02:36:88	349	-0.8614	-0.00087956	-0.00027394	0.50793	0.0062981	0.0041924	-0.0060616	0.0708761	0.0782346	-61.0515	-0.001894	-0.022278	-0.0060272	22.17494	120.8926	31.40258	-0.0035248	-0.0022755	-0.00097942	-97	3
30:02:37:08	350	-0.8614	-0.00089919	-0.00027377	0.50792	0.0066338	0.0033264	-0.0019503	0.0728239	0.0793599	-61.0511	0.0078354	0.018921	0.0050468	22.17494	120.8926	31.38185	-0.0041962	-0.0032749	-0.0049934	-98	2.75
30:02:37:27	351	-0.86143	-0.00086952	-0.00025956	0.50788	0.0064087	0.0054054	-0.0056534	0.0707268	0.0762271	-61.045	0.00050879	0.010048	0.002409	22.17494	120.8926	31.39242	-0.0053406	-0.0003593	-0.0014095	-97	2.75
30:02:37:47	352	-0.86141	-0.00085995	-0.00024871	0.50791	0.0066681	0.0012999	-0.00059891	0.0704103	0.0746013	-61.0499	0.012672	-0.0039406	-0.013092	22.17494	120.8926	31.4023	-0.0042992	-0.0007019	0.0010729	-97	3
30:02:37:67	353	-0.8614	-0.00088802	-0.00025355	0.50792	0.0060081	0.0060463	-0.0058708	0.0728989	0.0767139	-61.0509	0.034698	0.040283	-0.006424	22.17494	120.8926	31.41037	-0.0051689	-0.0012131	0.0024509	-97	2.75
30:02:37:86	354	-0.86138	-0.00089858	-0.00024462	0.50796	0.0058098	0.0045319	-0.004467	0.0744576	0.0764493	-61.0554	0.05307	0.0082016	-0.020325	22.17494	120.8926	31.3974	-0.0055237	-0.0015955	8.06E-05	-97	2.5
30:02:38:06	355	-0.86137	-0.00086041	-0.00026368	0.50797	0.0049057	0.0051193	-0.0055351	0.0695794	0.07611	-61.0573	0.014832	-0.016739	-0.0029354	22.17494	120.8926	31.40782	-0.0053215	-0.001298	-0.00033331	-97	2.75
30:02:38:26	356	-0.86133	-0.0008647	-0.00028676	0.50804	0.005867	0.0019798	-0.0033951	0.0686524	0.0786437	-61.067	-0.0023232	0.024246	0.011353	22.17494	120.8926	31.40848	-0.0043602	-0.002079	-0.0032558	-97	2.75
30:02:38:45	357	-0.86132	-0.00087738	-0.00024447	0.50807	0.0038338	0.0050812	-0.0053635	0.0723645	0.0752105	-61.0704	0.037994	0.0074844	-0.0030231	22.17494	120.8926	31.41461	-0.0037498	-0.0019817	-0.0041428	-98	3
30:02:38:65	358	-0.86125	-0.00087833	-0.00030287	0.50819	0.0027714	0.0031738	0.0014906	0.0690458	0.0810396	-61.0864	0.044403	0.0080948	-0.0070877	22.17494	120.8926	31.41517	-0.0036335	-0.0013494	-0.001296	-97	3
30:02:38:84	359	-0.86125	-0.00085751	-0.00030664	0.50818	0.0041389	0.0028839	-0.0011396	0.0667733	0.0801978	-61.085	0.011642	-0.0042839	-0.011559	22.17494	120.8926	31.39352	-0.0039291	-0.0015268	-0.0047073	-99	3
30:02:39:04	360	-0.8612	-0.00085996	-0.00030938	0.50826	0.0065765	0.0010881	-0.0021305	0.0668481	0.0806178	-61.096	-0.0059433	0.0041847	0.00089169	22.17494	120.8926	31.39847	-0.0033779	-0.0024967	-0.0017853	-98	3
30:02:39:23	361	-0.86118	-0.00085164	-0.0002945	0.5083	0.002327	0.0070381	-0.0057907	0.0668899	0.0786673	-61.1007	0.009697	0.0095062	0.0034523	22.17494	120.8926	31.40782	-0.0023232	-0.0016479	-0.00094795	-99	3
30:02:39:43	362	-0.86116	-0.00086297	-0.00032561	0.50834	0.0015936	0.0071869	-0.0032101	0.0661928	0.0824004	-61.1061	0.022964	-0.005249	0.0010071	22.17494	120.8926	31.40856	-0.0019226	-0.002224	-0.0027676	-98	3
30:02:39:63	363	-0.86115	-0.00084341	-0.00028844	0.50834	0.0044937	0.004715	-0.0035648	0.0664259	0.0775937	-61.1071	0.001524	-0.025299	-0.012108	22.17494	120.8926	31.40686	-0.0018721	-0.00284	-0.0058174	-98	3
30:02:39:82	364	-0.86115	-0.00082304	-0.00029449	0.50836	0.0045319	0.0056801	-0.007309	0.0640623	0.077005	-61.1086	-0.036255	0.00064516	0.0047493	22.17494	120.8926	31.38932	-0.0025692	-0.003521	-0.0093765	-97	2.75
30:02:40:02	365	-0.8611	-0.00084169	-0.00031238	0.50843	0.004055	0.0043983	-0.0031624	0.0648539	0.079863	-61.1192	-0.028015	-0.0070305	3.53E-05	22.17494	120.8926	31.38671	-0.0011663	-0.0046844	-0.011703	-98	2.75
30:02:40:21	366	-0.86107	-0.00084973	-0.00035193	0.50848	0.001255	0.0075493	-0.0044746	0.0633387	0.084237	-61.1251	-0.0057335	-0.03244	-0.0070534	22.17494	120.8926	31.38205	-0.0004921	-0.0047493	-0.013992	-100	2.25
30:02:40:41	367	-0.86112	-0.00086768	-0.00033423	0.50839	0.003479	0.0025139	-0.00055933	0.0661492	0.0835306	-61.1139	-0.023254	0.007988	0.0043983	22.17494	120.8926	31.3847	-0.0011768	-0.0039253	-0.011398	-101	2.75
30:02:40:61	368	-0.86109	-0.00087876	-0.00033791	0.50845	0.005146	0.0030041	-0.0029793	0.0670219	0.0845427	-61.1218	-0.018097	0.0029335	0.0074501	22.17494	120.8926	31.36631	-0.0026512	-0.0047798	-0.015137	-98	2.5
30:02:40:80	369	-0.86107	-0.00086184	-0.00031795	0.50848	0.003685	0.0060158	-0.0027065	0.0665129	0.0815898	-61.1258	0.0066338	-0.0050583	-0.0046692	22.17494	120.8926	31.3663	-0.0019064	-0.0040588	-0.011192	-98	2.5
30:02:41:00	370	-0.86109	-0.00084968	-0.00032101	0.50846	0.0025406	0.0080795	-0.0040169	0.0651375	0.0811817	-61.1223	0.0056572	-0.01265	-0.010948	22.17494	120.8926	31.37094	-0.00024557	-0.0032749	-0.0077896	-97	2.75
30:02:41:20	371	-0.86106	-0.00087416	-0.00033087	0.50851	0.0049858	0.0020924	0.00033689	0.0669726	0.0835852	-61.1293	-0.021317	-0.005024	-0.0062828	22.17494	120.8926	31.37339	-0.00056505	-0.0035515	-0.0080948	-98	2.75
30:02:41:39	372	-0.86102	-0.00088099	-0.00034507	0.50856	0.0052757	0.0059471	-0.0058861	0.0668144	0.0853888	-61.1364	-0.012932	0.0074768	-0.007618	22.17494	120.8926	31.37624	-0.00079679	-0.0036087	-0.0081558	-98	2.75
30:02:41:59	373	-0.86103	-0.00085697	-0.00034446	0.50856	0.0025997	0.0051422	6.62E-06	0.0644802	0.0839286	-61.1361	-0.0016623	-0.0047073	-0.0027905	22.17494	120.8926	31.35216	0.00052214	-0.0049057	-0.01329	-98	3
30:02:41:78	374	-0.86104	-0.00085747	-0.00034274	0.50854	0.00066614	0.01001	-0.0040436	0.0646315	0.0837859	-61.1332	0.0039787	-0.0073318	-0.005352	22.17494	120.8926	31.35828	0.0013762	-0.0042686	-0.0082092	-98	2.5
30:02:41:98	375	-0.86105	-0.00087282	-0.00026678	0.50852	0.0041313	0.0041237	-0.0025425	0.0705743	0.0771839	-61.1302	0.0083389	-0.0004425	-0.008934	22.17494	120.8926	31.36057	-0.00077152	-0.004261	-0.0056381	-98	2.25
30:02:42:18	376	-0.86106	-0.00086372	-0.00019452	0.50851	0.0053062	0.0020542	-0.0010939	0.0738881	0.0695225	-61.1288	0.025543	0.0044899	-0.0069847	22.17494	120.8926	31.3606	-0.0026608	-0.0030174	-0.0055542	-97	2.75
30:02:42:37	377	-0.86106	-0.00084594	-0.00019114	0.50851	0.0032063	0.0027962	0.0023232	0.0723304	0.0681532	-61.1286	0.037292	0.020462	0.00026035	22.17494	120.8926	31.34842	-0.0017996	-0.0039482	-0.0081329	-98	2.75
30:02:42:57	378	-0.86107	-0.00084499	-0.00021756	0.50849	-9.85E-05	0.0097046	-0.0042839	0.0706992	0.070703	-61.1266	0.036377	-0.012321	-0.013756	22.17494	120.8926	31.35214	-0.00083637	-0.0034657	-0.0063667	-97	3
30:02:42:76	379	-0.86102	-0.00087322	-0.0001779	0.50856	0.0033798	0.0039673	-0.0022888	0.0757898	0.0684412	-61.1364	0.04303	0.0063896	-0.0094833	22.17494	120.8926	31.35416	-0.0017471	-0.0029202	-0.0023441	-98	2.75
30:02:42:96	380	-0.86105	-0.000889	-0.00013243	0.50853	0.0056763	0.0027485	-0.00073099	0.0799987	0.0648715	-61.1315	0.088806	0.037079	-0.0075188	22.17494	120.8926	31.36186	-0.0029602	-0.0022545	-0.00083399	-98	2.75
30:02:43:16	381	-0.86101	-0.00082466	-0.00022257	0.50858	0.00080442	0.008316	-0.0017929	0.0683937	0.0700205	-61.1388	0.030991	0.0043144	-0.014977	22.17494	120.8926	31.3698	-0.0019875	-0.0025196	-0.0014706	-99	3
30:02:43:35	382	-0.86103	-0.00081143	-0.00016602	0.50856	0.0020027	0.0051575	-0.00044155	0.0703858	0.0636683	-61.1361	0.001852	-0.019089	0.0012102	22.17494	120.8926	31.35605	-0.0025997	-0.0032387	-0.0042648	-99	3
30:02:43:55	383	-0.86097	-0.00083377	-0.00019711	0.50865	0.0018177	0.0083084	-0.0068665	0.0707711	0.0680453	-61.1479	0.017426	0.0085068	-0.00032043	22.17494	120.8926	31.3632	-0.0025883	-0.0018272	-0.00054741	-98	3
30:02:43:75	384	-0.86097	-0.00078906	-0.00013614	0.50865	0.0015783	0.0044632	1.82E-05	0.0699141	0.0594241	-61.1476	0.040894	-0.0094376	-0.008728	22.17494	120.8926	31.36441	-0.0027618	-0.00035501	0.0020657	-98	2.75
30:02:43:94	385	-0.86101	-0.00080517	-0.00013725	0.50859	0.0017262	0.0047264	0.00054121	0.0714428	0.0604667	-61.1398	0.024719	0.0047112	-0.010498	22.17494	120.8926	31.37106	-0.0033283	-0.0012274	0.0018463	-98	3
30:02:44:14	386	-0.86104	-0.00076751	-0.00012943	0.50853	0.0016642	0.0049706	0.00074387	0.068186	0.0574963	-61.1325	-0.012413	0.0050163	-0.00354	22.17494	120.8926	31.36887	-0.0042381	-0.00032067	0.001298	-98	2.75
30:02:44:33	387	-0.86102	-0.00077362	-0.00010048	0.50857	0.0027466	0.0049667	-0.0035381	0.0704741	0.0549986	-61.1371	-0.0092926	-0.0057564	-0.0068855	22.17494	120.8926	31.36098	-0.0053482	0.00011253	-0.00011986	-99	3
30:02:44:53	388	-0.86094	-0.00076406	-0.00010172	0.5087	0.0018177	0.0036449	1.50E-05	0.06945	0.0545742	-61.1551	0.0010252	0.011276	0.006813	22.17494	120.8926	31.3612	-0.0045204	0.00089025	-0.00045156	-99	2.75
30:02:44:73	389	-0.86083	-0.00075233	-0.00011294	0.50889	0.0017328	0.004982	0.0002414	0.067627	0.0550123	-61.18	-0.0081635	0.017059	0.010643	22.17494	120.8926	31.36451	-0.0036583	0.0016365	0.0010967	-97	3
30:02:44:92	390	-0.8607	-0.00076254	-0.00011106	0.50911	0.0029182	0.0037556	-0.00022697	0.0687291	0.05544	-61.2094	-0.020294	-0.01461	-0.0056076	22.17494	120.8926	31.36891	-0.0042953	0.0012341	0.0024948	-97	2.75
30:02:45:12	391	-0.8607	-0.00074743	-6.73E-05	0.50911	0.0031395	0.0074539	-0.0067978	0.0697928	0.0502415	-61.2095	-0.018768	-0.016342	-0.017136	22.17494	120.8926	31.35679	-0.0059357	0.0011053	0.00018084	-97	3
30:02:45:31	392	-0.86055	-0.00074144	-8.54E-05	0.50936	0.0017223	0.0058899	-0.00096512	0.0681328	0.0516942	-61.2421	-0.0016985	0.0022106	-0.00061989	22.17494	120.8926	31.35613	-0.0045662	0.0023003	0.00061989	-98	2
30:02:45:51	393	-0.86059	-0.00073432	-0.00010093	0.5093	0.0010538	0.0081787	-0.0032444	0.0665248	0.0528099	-61.235	-0.02211	-0.007431	0.0078354	22.17494	120.8926	31.35811	-0.0042648	0.0019026	0.00080633	-98	2.75
30:02:45:71	394	-0.86045	-0.0007549	-8.79E-05	0.50953	0.0048714	0.003067	0.00013065	0.0693008	0.052744	-61.2651	-0.018509	-0.0031395	0.00030994	22.17494	120.8926	31.35919	-0.0053596	0.0012159	0.00083113	-98	3
30:02:45:90	395	-0.86044	-0.00075619	-6.17E-05	0.50955	0.0058784	0.003479	-0.0025635	0.0709542	0.0502416	-61.2678	-0.016327	0.0062675	-0.0046616	22.17494	120.8926	31.35631	-0.0057602	0.00074482	-0.0019665	-97	3
30:02:46:10	396	-0.86042	-0.00073123	-0.00010863	0.50959	0.0028839	0.0075188	-0.0038357	0.0657532	0.05341	-61.2726	-0.025223	-0.017441	-0.0062256	22.17494	120.8926	31.3402	-0.0057335	0.00059938	-0.005352	-97	3
30:02:46:29	397	-0.86029	-0.00071888	-8.87E-05	0.50981	0.00053596	0.0044365	0.0030193	0.0656875	0.0507396	-61.3024	-0.019165	-0.02066	-0.00093365	22.17494	120.8926	31.34467	-0.0031319	0.00050688	-0.0073242	-97	2.75
30:02:46:49	398	-0.86033	-0.00073965	-0.00011009	0.50974	0.0025349	0.0035038	-0.0010633	0.0664892	0.0540578	-61.2929	-0.017548	0.012344	0.015038	22.17494	120.8926	31.34769	-0.0050964	0.00057554	-0.003933	-97	2.75
30:02:46:69	399	-0.86022	-0.00075955	-3.35E-05	0.50992	0.0031662	0.0049667	-0.0030823	0.0729173	0.0476806	-61.3176	0.032593	-0.0077286	-0.0081024	22.17494	120.8926	31.34936	-0.0045776	0.001174	0.00043011	-97	2.75
30:02:46:88	400	-0.86024	-0.00075303	-2.90E-05	0.50989	0.002718	0.0059128	-0.00095844	0.0725385	0.0468548	-61.3133	0.019867	0.0093536	0.002161	22.17494	120.8926	31.35196	-0.0053101	-0.00073195	-0.0011139	-97	2.75
30:02:47:08	401	-0.86022	-0.00072979	-9.00E-05	0.50992	0.0015221	0.005825	0.0015221	0.0666788	0.0515168	-61.3166	-0.030563	0.020172	0.0063438	22.17494	120.8926	31.33815	-0.0059509	0.00010592	-0.0038986	-97	2.75
30:02:47:27	402	-0.85998	-0.00071913	-5.48E-05	0.51034	0.0019493	0.007206	-0.004425	0.0676644	0.0474531	-61.3723	-0.032227	-0.034149	-0.009346	22.17494	120.8926	31.33628	-0.0046196	0.00077009	-0.0036182	-97	3
30:02:47:47	403	-0.85977	-0.00075562	-4.87E-05	0.51069	0.0017643	0.0041161	0.00047565	0.0715961	0.0490156	-61.4194	0.035553	0.013535	-0.0048676	22.17494	120.8926	31.33554	-0.004097	0.0026703	-0.00062418	-97	3
30:02:47:66	404	-0.85971	-0.0007407	-5.26E-05	0.51078	0.00022054	0.0091019	-0.0042343	0.0698898	0.04854	-61.4318	0.039948	0.015305	0.0098724	22.17494	120.8926	31.33176	-0.0026951	0.0029774	0.0021076	-99	2.75
30:02:47:86	405	-0.85971	-0.00072053	-5.97E-05	0.51079	0.0023422	0.0053368	0.0011272	0.0674908	0.0480521	-61.433	-0.0030327	-0.017761	-0.011429	22.17494	120.8926	31.31343	-0.0041389	0.0016136	-0.0026131	-99	3.5
30:02:48:06	406	-0.85969	-0.00070358	-2.93E-05	0.51081	0.001832	0.0066795	-0.0041695	0.0675995	0.0440663	-61.436	-0.0022354	-0.0065918	-0.0037918	22.17494	120.8926	31.31349	-0.0046158	0.0010748	-0.0015287	-98	3.75
30:02:48:25	407	-0.85959	-0.00071905	-1.51E-06	0.51099	0.0023727	0.0035973	-0.0015574	0.070739	0.0422523	-61.4597	0.048035	0.025513	-0.0050392	22.17494	120.8926	31.31278	-0.0035915	0.0038834	-3.81E-06	-98	3.75
30:02:48:45	408	-0.85942	-0.0007025	-4.82E-05	0.51127	-0.00098801	0.0073967	-0.00030375	0.0663584	0.0459078	-61.4965	0.018219	-0.0031624	-0.01918	22.17494	120.8926	31.31337	-0.0016851	0.0044441	0.00058842	-97	3.5
30:02:48:64	409	-0.85939	-0.00070483	-7.72E-05	0.51132	0.00074244	0.0071754	-0.0026054	0.0648895	0.0488977	-61.5041	0.0015373	0.016876	0.0021191	22.17494	120.8926	31.30918	-0.0031433	0.0028973	0.00020409	-100	3.5
30:02:48:84	410	-0.85935	-0.00072542	1.41E-05	0.51138	0.0043144	0.0017138	-0.00071335	0.072261	0.041122	-61.5117	0.049774	0.030121	-0.0064964	22.17494	120.8926	31.2977	-0.0044174	0.0033607	-0.0019503	-100	3.5
30:02:49:04	411	-0.8594	-0.00070579	-4.59E-05	0.5113	-0.00031805	0.0079956	-0.0012302	0.0668174	0.0458723	-61.5005	0.075073	-0.01339	-0.029572	22.17494	120.8926	31.29781	-0.0035343	0.0024319	-0.0005331	-100	3.75
30:02:49:23	412	-0.85939	-0.00068106	-7.20E-05	0.51132	0.0021076	0.0041466	0.0021305	0.0628515	0.046995	-61.5034	0.003231	0.0075264	-0.00073051	22.17494	120.8926	31.30064	-0.0038586	0.0022125	0.00057888	-99	3.75
30:02:49:43	413	-0.85931	-0.00069208	-9.75E-05	0.51146	0.0052795	0.0051727	-0.0045357	0.062437	0.0501578	-61.5216	-0.019852	0.012573	0.0065384	22.17494	120.8926	31.30284	-0.0054131	0.0019093	0.0032291	-97	3.75
30:02:49:62	414	-0.8593	-0.00066758	-2.29E-05	0.51147	0.0032558	0.0047226	-0.0017834	0.0643939	0.0413812	-61.5232	0.041595	0.00018024	-0.0089493	22.17494	120.8926	31.30295	-0.0044441	0.0016298	0.00040317	-100	3.5
30:02:49:82	415	-0.8593	-0.00066366	-8.72E-05	0.51148	0.00097466	0.0092316	-0.0041237	0.0602358	0.0474889	-61.5248	0.015213	0.00070047	-0.014229	22.17494	120.8926	31.28715	-0.0035515	0.0013475	-0.0035305	-102	3.25
30:02:50:02	416	-0.85929	-0.00062215	-9.17E-05	0.5115	0.0023575	0.0029049	0.0017319	0.0558896	0.0454908	-61.5271	-0.034119	0.0043106	-0.00081635	22.17494	120.8926	31.28464	-0.0043869	0.0018806	-0.0036793	-98	3.75
30:02:50:21	417	-0.85918	-0.00065491	-8.75E-05	0.51167	0.0039635	0.005497	-0.0053787	0.0593515	0.0470104	-61.5498	-0.012573	-0.013802	-0.0026493	22.17494	120.8926	31.28412	-0.0046539	0.0019321	-0.0025139	-97	3.75
30:02:50:41	418	-0.85902	-0.0006601	-8.03E-05	0.51194	0.00073338	0.0082626	-0.005722	0.0602661	0.0466296	-61.5856	0.026718	0.02037	0.0062103	22.17494	120.8926	31.28183	-0.0022106	0.0020027	-0.0032215	-97	3.75
30:02:50:60	419	-0.85904	-0.0006475	-8.43E-05	0.51191	-0.00049114	0.0090714	-0.0038967	0.058794	0.0462811	-61.5817	0.0026226	0.018066	0.014931	22.17494	120.8926	31.26834	-0.0027275	0.003067	-0.0058517	-99	3.75
30:02:50:80	420	-0.85907	-0.00063684	-8.64E-05	0.51186	0.0016546	0.0050659	0.0013351	0.0576238	0.0458599	-61.576	-0.028748	-0.014664	-0.012108	22.17494	120.8926	31.26514	-0.0048981	0.0017462	-0.0074883	-97	3.5
30:02:51:00	421	-0.85899	-0.00064319	-5.25E-05	0.51199	0.0037937	0.0051765	-0.0052299	0.0602303	0.0429048	-61.5932	-0.0034771	-0.0055046	0.00042343	22.17494	120.8926	31.26455	-0.0050278	0.0020142	-0.0080795	-96	3.75
30:02:51:19	422	-0.85872	-0.00065096	-8.34E-05	0.51244	0.0020885	0.0070724	-0.004467	0.0591576	0.0464339	-61.6534	0.0093613	0.032776	0.0053825	22.17494	120.8926	31.26875	-0.0034142	0.0035877	-0.0052299	-98	3.75
30:02:51:39	423	-0.85889	-0.0006333	-7.90E-05	0.51216	0.00014293	0.0056915	0.0020885	0.0576968	0.044939	-61.6159	-0.0089874	-0.013306	0.0029831	22.17494	120.8926	31.27235	-0.003994	0.0023804	-0.0021915	-98	3.5
30:02:51:58	424	-0.85886	-0.00061911	-0.00012363	0.51221	0.0018129	0.0052109	0.00018382	0.0536753	0.0485066	-61.622	-0.050934	-0.0025673	0.011238	22.17494	120.8926	31.26045	-0.0058784	0.002079	-0.0045204	-97	3.75
30:02:51:78	425	-0.85853	-0.00061516	-8.33E-05	0.51277	0.0014591	0.0043831	0.00069571	0.0556274	0.0443371	-61.6964	-0.027344	0.0071945	-0.0036793	22.17494	120.8926	31.25904	-0.0042038	0.0034313	-0.0024586	-99	3.75
30:02:51:98	426	-0.85833	-0.00064849	-0.00012357	0.5131	0.0013075	0.0051842	-0.0016584	0.0565189	0.0502831	-61.7407	-0.017944	-0.04071	-0.011932	22.17494	120.8926	31.25922	-0.0025673	0.0037766	-0.001893	-98	3.75
30:02:52:17	427	-0.85841	-0.00065481	-0.00012536	0.51296	0.0023365	0.0064125	-0.0035038	0.0570425	0.0508219	-61.7225	-0.054321	0.0013494	0.0047188	22.17494	120.8926	31.25801	-0.0037937	0.0015049	-0.0034618	-98	3.75
30:02:52:37	428	-0.8584	-0.00067863	-8.62E-05	0.51298	0.0029583	0.0058212	-0.0032349	0.0616893	0.0483664	-61.7253	-0.020477	0.0039597	0.0029182	22.17494	120.8926	31.24964	-0.0046997	0.0013275	-0.0056152	-97	3.75
30:02:52:57	429	-0.85827	-0.00067969	-6.05E-05	0.5132	0.0016308	0.0065308	-0.0021057	0.0632926	0.0459172	-61.7545	0.0042877	-0.017487	0.0015106	22.17494	120.8926	31.24408	-0.0042839	-6.56E-06	-0.0096207	-97	3.75
30:02:52:76	430	-0.85814	-0.00068856	-5.93E-05	0.51342	0.0033607	0.0069237	-0.0045471	0.0642221	0.0463391	-61.7835	-0.012703	-0.023193	-0.012611	22.17494	120.8926	31.24065	-0.0041008	-3.58E-05	-0.0084381	-99	4
30:02:52:96	431	-0.85812	-0.00068504	-4.98E-05	0.51345	0.0036545	0.0029182	-0.00047445	0.0644349	0.045198	-61.7874	-0.04776	0.010666	0.0039597	22.17494	120.8926	31.2482	-0.004158	0.0014038	-0.0027905	-97	3.5
30:02:53:16	432	-0.85811	-0.00069901	-5.94E-05	0.51347	0.0047531	0.0042038	-0.002821	0.0652414	0.0469668	-61.7908	-0.044983	-0.0081406	-0.0006609	22.17494	120.8926	31.25259	-0.0058479	0.0007267	-0.00049257	-98	3.75
30:02:53:35	433	-0.8581	-0.00070773	-2.71E-05	0.51348	0.003706	0.0035896	-0.0016661	0.0680007	0.0443034	-61.7915	0.0070457	-0.0099716	-0.0062408	22.17494	120.8926	31.24911	-0.005825	0.00017607	-0.0019875	-97	3.75
30:02:53:55	434	-0.8581	-0.00070131	-1.41E-05	0.51348	0.0016279	0.0075645	-0.0031605	0.0681342	0.0426469	-61.7913	0.0095367	0.020187	0.0027924	22.17494	120.8926	31.25349	-0.0054741	0.00013602	-0.00073051	-97	4
30:02:53:74	435	-0.85794	-0.00068601	-2.05E-05	0.51375	0.0020523	0.0045815	0.0017824	0.0662339	0.0424068	-61.828	-0.012131	-0.02919	-0.013672	22.17494	120.8926	31.26018	-0.0054016	0.0003202	0.00022686	-97	4
30:02:53:94	436	-0.85792	-0.00069099	1.25E-06	0.51378	0.0026531	0.0077057	-0.004776	0.0680053	0.0405587	-61.8317	-0.0098495	0.0059662	-0.0034103	22.17494	120.8926	31.26242	-0.0065231	-0.00032139	-0.00048971	-97	4
30:02:54:14	437	-0.8579	-0.00068776	2.88E-05	0.51381	0.0028305	0.0034428	0.0023308	0.0693063	0.037667	-61.8358	0.006279	0.0030918	-0.017105	22.17494	120.8926	31.26242	-0.006813	0.00059223	-0.0022125	-97	4
30:02:54:33	438	-0.85791	-0.00068917	3.61E-05	0.5138	0.0021038	0.0066452	-0.0025291	0.0698787	0.0370244	-61.8344	-0.019806	-0.02446	-0.0015144	22.17494	120.8926	31.26069	-0.0073624	0.00044346	-0.0028744	-97	3.75
30:02:54:53	439	-0.85778	-0.00071813	1.01E-05	0.51402	0.0044746	0.003231	-0.00086784	0.0711806	0.0413109	-61.8639	-0.016968	-0.010002	0.00017357	22.17494	120.8926	31.26234	-0.0061035	-0.00074434	-0.0029964	-98	4
30:02:54:73	440	-0.85778	-0.00072508	4.18E-05	0.51402	0.0034218	0.0062943	-0.0046806	0.0737304	0.0386048	-61.864	0.028381	0.013741	0.0018187	22.17494	120.8926	31.26721	-0.0068321	0.00091553	-0.0027428	-97	3.75
30:02:54:92	441	-0.85759	-0.00070093	8.60E-06	0.51433	0.00090742	0.0056229	0.00047922	0.0693889	0.0404664	-61.9056	-0.0025635	-0.013153	-0.0079041	22.17494	120.8926	31.27379	-0.0054932	0.0010347	-0.0020866	-98	3.5
30:02:55:12	442	-0.85758	-0.00072918	1.53E-05	0.51436	0.0030289	0.0066452	-0.0047073	0.0725597	0.0414741	-61.9092	-0.013863	0.0047188	-0.0098648	22.17494	120.8926	31.27065	-0.0070038	0.0014324	-0.0030804	-97	4
30:02:55:31	443	-0.85754	-0.00073853	5.98E-05	0.51441	0.0059547	0.0038929	-0.0050545	0.0760957	0.0376619	-61.9167	0.0044365	-0.00031543	-0.00811	22.17494	120.8926	31.27346	-0.0081558	0.0013542	-0.00066137	-97	3.5
30:02:55:51	444	-0.85734	-0.00070345	4.55E-05	0.51475	0.0028	0.004837	-0.0029755	0.0717924	0.0370256	-61.9613	0.0013523	0.0032749	0.0031796	22.17494	120.8926	31.27805	-0.0064468	0.0018272	0.0011597	-98	3.5
30:02:55:71	445	-0.85733	-0.00070209	-3.71E-05	0.51476	0.001791	0.0045738	0.00055933	0.0667851	0.0450636	-61.9631	-0.033051	0.010971	0.019394	22.17494	120.8926	31.26984	-0.0054016	0.001627	-0.0031281	-98	3.5
30:02:55:90	446	-0.85742	-0.00072597	3.36E-05	0.51462	0.0024414	0.0065956	-0.0032368	0.0733127	0.0395047	-61.9435	-0.010811	-0.0021935	-0.00035667	22.17494	120.8926	31.26875	-0.0058136	0.00063801	-0.0030251	-98	3.75
30:02:56:10	447	-0.85738	-0.00076791	3.51E-05	0.51469	0.0033092	0.0063705	-0.003315	0.0775144	0.0418443	-61.9534	0.018402	0.0098953	-0.0085144	22.17494	120.8926	31.26001	-0.0078888	-0.00041056	-0.0052338	-98	3.5
30:02:56:29	448	-0.85693	-0.00075434	3.51E-05	0.51543	0.0028763	0.0033455	0.0020142	0.0761473	0.0411068	-62.0525	0.025223	0.024704	0.0022202	22.17494	120.8926	31.2586	-0.0055161	0.0010366	-0.0045357	-97	3.5
30:02:56:49	449	-0.85673	-0.00073019	-4.32E-07	0.51576	-0.00024462	0.0083084	-0.0040855	0.0716609	0.0431981	-62.0964	0.017395	-0.039063	-0.012077	22.17494	120.8926	31.26051	-0.0043297	0.0025902	-0.0034943	-100	3.75
30:02:56:69	450	-0.85673	-0.00070686	3.10E-05	0.51577	0.00039458	0.0057144	-0.0017471	0.0712244	0.0387394	-62.0982	-0.0063705	0.0026817	0.0035152	22.17494	120.8926	31.26186	-0.0035343	0.0020409	-0.0010138	-100	3.25
30:02:56:88	451	-0.85673	-0.00076777	5.27E-05	0.51577	0.002306	0.0077438	-0.0061111	0.078491	0.0402006	-62.0976	0.038361	0.02269	-0.0089569	22.17494	120.8926	31.26241	-0.0055542	0.0023899	-0.0010519	-102	3.25
30:02:57:08	452	-0.85676	-0.00075281	0.00012392	0.51572	0.0023689	0.003746	0.0014896	0.0812324	0.032323	-62.0908	0.031097	-0.016617	-0.026581	22.17494	120.8926	31.2573	-0.0067978	0.0025883	-0.002409	-103	3
30:02:57:27	453	-0.85662	-0.00070115	4.40E-05	0.51594	0.0014191	0.0058441	-0.0016727	0.0714265	0.0371369	-62.1212	-0.017136	-0.011398	-0.014938	22.17494	120.8926	31.25376	-0.0067558	0.0022755	-0.0023079	-104	3
30:02:57:47	454	-0.85638	-0.00069056	3.52E-05	0.51634	0.00062132	0.003624	0.0017738	0.0698491	0.037408	-62.1747	-0.0053673	0.0026779	0.0051765	22.17494	120.8926	31.25102	-0.0045738	0.0030441	-0.00076628	-97	3.75
30:02:57:67	455	-0.85621	-0.00067959	2.12E-05	0.51664	-0.00105	0.0090027	-0.0025215	0.0679318	0.0381531	-62.2136	-0.0022335	-0.022339	-0.0058174	22.17494	120.8926	31.24645	-0.0029907	0.003006	0.0010138	-97	3.75
30:02:57:86	456	-0.85619	-0.00070199	4.87E-05	0.51666	0.0034351	0.0030804	-0.0011826	0.0717597	0.0367796	-62.2175	0.013741	-0.014793	-0.022186	22.17494	120.8926	31.2374	-0.005024	0.0028572	-0.0010672	-100	3.75
30:02:58:06	457	-0.85624	-0.00067932	6.37E-05	0.51658	0.0027256	0.0057945	-0.0028725	0.0704217	0.0339671	-62.2065	0.019501	0.025375	-0.0037098	22.17494	120.8926	31.23791	-0.0066643	0.0032082	0.0010376	-101	3.75
30:02:58:25	458	-0.85631	-0.00066468	-2.14E-05	0.51646	0.00031781	0.0049171	0.0026703	0.0639546	0.0414393	-62.1907	0.0020485	-0.019089	-0.01313	22.17494	120.8926	31.23507	-0.0071259	0.0020847	-0.0020676	-99	3.5
30:02:58:45	459	-0.85612	-0.00063988	2.46E-05	0.51678	-0.0013599	0.0094147	-0.0024719	0.0642342	0.0354747	-62.2328	0.0064964	-0.0059052	-0.018661	22.17494	120.8926	31.22998	-0.0056763	0.0029011	-0.0043488	-99	4
30:02:58:65	460	-0.85604	-0.00066321	3.01E-06	0.5169	0.0012245	0.0044975	0.0006218	0.0652361	0.0389885	-62.2497	0.0083237	0.0011282	-0.0015774	22.17494	120.8926	31.226	-0.0059853	0.0026131	-0.0051422	-98	3.5
30:02:58:84	461	-0.85604	-0.0006764	4.80E-05	0.5169	0.0050774	0.0024681	-0.0011091	0.0691961	0.0353546	-62.2494	0.0035706	0.0057487	-0.0040207	22.17494	120.8926	31.21969	-0.0077362	0.0025444	-0.0064278	-97	3.75
30:02:59:04	462	-0.85595	-0.00068147	2.00E-05	0.51706	0.0014572	0.0060272	-0.00061321	0.0680251	0.0384179	-62.2701	0.026993	0.019638	-0.010353	22.17494	120.8926	31.21856	-0.0076218	0.0017939	-0.0070381	-98	3.75
30:02:59:23	463	-0.8557	-0.00063369	-4.89E-05	0.51747	-0.0020981	0.010223	2.15E-05	0.0592393	0.0423686	-62.3248	-0.013077	0.0092773	0.00075245	22.17494	120.8926	31.22018	-0.0055542	0.0030804	-0.0035782	-98	4
30:02:59:43	464	-0.85568	-0.00063466	-2.42E-05	0.51751	-0.00067806	0.010254	-0.005394	0.0607971	0.0400067	-62.3308	-0.015366	-0.017975	-0.0086288	22.17494	120.8926	31.218	-0.006546	0.0041962	-0.0020561	-99	4
30:02:59:63	465	-0.85578	-0.00064047	4.11E-06	0.51733	0.0021496	0.0051689	-0.0028381	0.0630515	0.0375658	-62.3072	-0.010567	0.0073853	0.0026665	22.17494	120.8926	31.21641	-0.007473	0.0033836	-0.0011158	-100	4
30:02:59:82	466	-0.85578	-0.00066698	1.32E-05	0.51734	0.0011206	0.0057907	-0.00034308	0.066191	0.0382435	-62.3083	0.028671	0.035278	0.0075607	22.17494	120.8926	31.20694	-0.0073166	0.0036583	-0.0033245	-97	4
30:03:00:02	467	-0.85552	-0.00066014	-2.96E-05	0.51777	0.00073099	0.0061455	0.0036221	0.0629588	0.0420727	-62.3662	0.016556	0.0026188	-0.011612	22.17494	120.8926	31.20274	-0.0066833	0.0034389	-0.0023689	-99	3.75
30:03:00:22	468	-0.85557	-0.00064398	-4.15E-05	0.51769	0.0014038	0.0089874	-0.00317	0.0606748	0.0422701	-62.3555	-0.010864	-0.0063553	-0.010986	22.17494	120.8926	31.19944	-0.0080566	0.0022163	-0.0029621	-97	4
30:03:00:41	469	-0.85542	-0.00064798	-5.38E-05	0.51793	0.001296	0.004509	0.0015182	0.0603268	0.0437273	-62.3875	-0.0001986	0.02037	0.0050316	22.17494	120.8926	31.19959	-0.0071297	0.0035439	-0.0042419	-97	3.75
30:03:00:61	470	-0.85542	-0.00063744	-4.80E-05	0.51793	-0.00027609	0.009201	-0.0035229	0.0596352	0.0425388	-62.3871	0.019455	0.010773	-0.0023193	22.17494	120.8926	31.19565	-0.0064201	0.0041199	-0.0054588	-98	3.75
30:03:00:80	471	-0.85536	-0.00063724	-2.92E-05	0.51804	0.00061512	0.0056572	0.0018835	0.060725	0.0406935	-62.4019	0.0062103	0.017944	0.0038605	22.17494	120.8926	31.19727	-0.0066414	0.0037842	-0.0049591	-98	3.75
30:03:01:00	472	-0.85525	-0.00065489	-5.73E-06	0.51821	0.0014429	0.0084152	-0.0035973	0.0638421	0.0394508	-62.4249	0.019241	0.016098	-0.0065079	22.17494	120.8926	31.19691	-0.0071602	0.0047569	-0.0043716	-97	3.75
30:03:01:19	473	-0.85523	-0.00062018	-7.02E-05	0.51825	0.00065804	0.0040894	0.002037	0.0566077	0.0437138	-62.4296	-0.0046158	0.0037994	-0.010445	22.17494	120.8926	31.19643	-0.0068588	0.0040741	-0.0031319	-99	4
30:03:01:39	474	-0.85528	-0.00061305	-2.44E-05	0.51816	-0.0017958	0.0097198	-0.0028095	0.0586375	0.038789	-62.418	0.02063	-0.012871	-0.011826	22.1752	62.4383	1.62E-24	-0.0063477	0.0031147	-0.0061989	-96	-0.5
30:03:01:59	475	-0.85528	-0.00061969	-1.65E-05	0.51816	-0.00012207	0.0043182	0.001955	0.059755	0.0384125	-62.4176	0.014435	0.034332	0.00086975	22.17494	120.8926	31.18582	-0.0076027	0.0042419	-0.0079346	-98	3.5
30:03:01:78	476	-0.85506	-0.00062723	-4.28E-05	0.51853	0.0017099	0.0086365	-0.004837	0.058913	0.0414666	-62.4673	0.011482	-0.0070953	-0.0048943	22.17494	120.8926	31.18337	-0.0076294	0.003191	-0.0068779	-99	3.75
30:03:01:98	477	-0.85504	-0.00059213	-1.60E-05	0.51856	0.0019779	0.005764	-0.0018225	0.057065	0.0367571	-62.4713	-0.0060539	0.0080185	0.0034237	22.17494	120.8926	31.18251	-0.0086441	0.0039253	-0.0047112	-101	3.5
30:03:02:18	478	-0.8551	-0.00058042	-2.58E-05	0.51846	0.0014944	0.0069542	-0.003849	0.0553394	0.037014	-62.4585	-0.02977	0.01281	-0.0026131	22.17494	120.8926	31.18501	-0.008873	0.0048027	0.0010586	-101	3
30:03:02:37	479	-0.85481	-0.00061391	7.93E-06	0.51893	0.0011044	0.006073	-0.0035706	0.0606066	0.0357298	-62.5214	0.010193	-0.019501	-0.017075	22.17494	120.8926	31.18768	-0.0068779	0.0057945	0.86523	-88	-5.75
30:03:02:57	480	-0.85482	-0.00061215	2.36E-05	0.51697	0.0010099	0.38379	-5.79E-05	0.0614869	0.0340196	-62.329	0.029282	0.0011435	0.00078773	22.17494	120.8926	31.18654	-0.0084	0.0053825	0.0016975	-97	0.25
30:03:02:76	481	-0.85491	-0.00062729	-5.93E-05	1.5375	0.0032158	0.0025749	0.0006566	0.01647776	0.03758949	-121.8498	-0.018829	0.011223	0.0018969	22.17494	120.8926	31.18505	-0.0099564	0.0033054	0.0011415	-96	3.75
30:03:02:96	482	-0.85465	-0.00058609	-5.63E-05	0.5192	0.0030155	0.0026875	0.00078964	0.0540503	0.0403825	-62.557	-0.033569	-0.0084534	-0.0040894	22.17494392	120.6738205	185082896	-0.0077705	0.0037518	0.0019503	-91	0
30:03:03:16	483	-0.85461	-0.00059852	-8.61E-05	0.51926	0.0019522	0.0066032	-0.0035343	0.0534913	0.0440449	-62.5657	-0.016922	-0.0089493	-0.0033436	22.17494	120.8926	31.19269	-0.0074234	0.0034351	0.00090456	-99	3.5
30:03:03:35	484	-0.85465	-0.00058435	-8.40E-06	0.5192	0.0034809	0.0035591	-0.002264	0.0567292	0.0355888	-62.5572	-0.018127	-0.0014753	-0.0019045	22.17494	120.8926	31.19119	-0.0082321	0.0042496	0.0007019	-97	3.75
30:03:03:55	485	-0.85445	-0.00060358	-5.77E-05	0.51954	0.0046082	0.005825	-0.0052185	0.0556608	0.0415858	-62.6025	-0.0050011	-0.012642	0.00036812	22.17494	120.8926	31.19145	-0.0079422	0.0035191	0.00084639	-97	3.5
30:03:03:75	486	-0.85442	-0.00058791	-6.47E-05	0.51958	0.0049706	0.0018816	0.00085402	0.0537093	0.0413395	-62.6083	-0.025803	0.0035439	0.0094681	22.17494	120.8926	31.19412	-0.0084381	0.0026703	0.00046492	-97	3.75
30:03:03:94	487	-0.85444	-0.00057397	-5.41E-05	0.51955	0.0034065	0.0064125	-0.0053024	0.0529755	0.0394714	-62.6039	-0.02684	-0.009285	-0.00059605	22.17494	120.8926	31.19316	-0.0079727	0.0020485	-0.0024357	-98	3
30:03:04:14	488	-0.8544	-0.00058165	-5.78E-05	0.51962	0.0054092	0.0034447	-0.0042992	0.0535081	0.0402895	-62.6136	-0.026764	-0.020233	-0.01194	22.17494	120.8926	31.19394	-0.0084839	0.0020866	-0.0042419	-98	3.25
30:03:04:33	489	-0.85438	-0.00057644	-1.11E-05	0.51964	0.0070229	0.0042534	-0.0064507	0.0557748	0.0354138	-62.6169	0.0042076	0.017319	-0.0037479	22.17494	120.8926	31.18852	-0.0090714	0.0025578	-0.0059319	-97	3.25
30:03:04:53	490	-0.85446	-0.00057175	-6.85E-05	0.51951	0.0037479	0.004879	-0.0021019	0.0519051	0.0407427	-62.5989	-0.010925	0.016724	-0.0016279	22.17494	120.8926	31.19207	-0.0093307	0.0015306	-0.0041924	-98	3
30:03:04:73	491	-0.8543	-0.00053499	-6.56E-05	0.51978	0.003891	0.0072098	-0.0058289	0.0484657	0.0382864	-62.635	-0.031464	-0.017471	0.009079	22.17494	120.8926	31.19959	-0.009613	0.003809	0.001255	-98	2.75
30:03:04:92	492	-0.85429	-0.00054046	-6.19E-05	0.51981	0.0047989	0.0059357	-0.0057373	0.0492199	0.0382537	-62.6383	-0.018219	0.0099792	0.0056572	22.17494	120.8926	31.2075	-0.0094757	0.0037632	0.0036316	-97	2.75
30:03:05:12	493	-0.85431	-0.00050402	-8.99E-06	0.51976	0.004158	0.0046692	-0.0038414	0.0488065	0.0308999	-62.6322	-0.010201	0.0051422	0.0040359	22.17494	120.8926	31.20934	-0.0093155	0.0046272	0.0036163	-97	3.25
30:03:05:32	494	-0.85413	-0.00055036	-7.09E-05	0.52007	0.0048256	0.0030651	0.00046802	0.0496393	0.0397427	-62.6732	0.001255	-0.0069084	-0.0021935	22.17494	120.8926	31.21853	-0.0084381	0.0033627	0.0053177	-97	3
30:03:05:51	495	-0.85394	-0.00051931	-7.38E-05	0.52036	0.0047455	0.003933	-0.0017271	0.0464181	0.0381847	-62.7134	-0.012344	0.01593	0.00030804	22.17494	120.8926	31.22231	-0.0080643	0.0034885	0.004734	-97	3.25
30:03:05:71	496	-0.85386	-0.00053844	-7.20E-05	0.5205	0.0047493	0.0027447	-0.0011606	0.0483885	0.039162	-62.732	-0.012817	0.0065765	0.0033398	22.17494	120.8926	31.22606	-0.0080948	0.0033092	0.0026932	-98	2.75
30:03:05:91	497	-0.85381	-0.00052289	-5.46E-05	0.52059	0.004467	0.0061073	-0.0049438	0.0479008	0.0365359	-62.7431	0.0001272	-0.011169	-0.0054321	22.17494	120.8926	31.23236	-0.0069923	0.0027161	0.00019133	-98	2.75
30:03:06:10	498	-0.8538	-0.00052979	-8.29E-05	0.52061	0.0035629	0.0061874	-0.0040855	0.0468912	0.0397117	-62.7457	0.0012102	0.018936	0.00055027	22.17494	120.8926	31.2321	-0.0070114	0.0036316	-0.00063038	-97	3
30:03:06:30	499	-0.85376	-0.0005208	-3.35E-06	0.52066	0.0050049	0.0011787	0.0013809	0.0507518	0.0314007	-62.7534	0.034119	0.013275	-0.0076828	22.17494	120.8926	31.23682	-0.0068855	0.004158	0.0025673	-97	3
30:03:06:49	500	-0.85347	-0.00052809	-8.64E-05	0.52114	0.0047836	0.0068207	-0.0055122	0.0464859	0.0399897	-62.8171	-0.0082092	0.0031052	-0.002203	22.17494	120.8926	31.24015	-0.005722	0.0033894	0.0021458	-98	3
30:03:06:69	501	-0.85339	-0.00051085	-4.81E-05	0.52127	0.0057526	0.005867	-0.0066872	0.0470861	0.0352142	-62.8351	0.0017605	0.0098267	0.00037098	22.17494	120.8926	31.24616	-0.0056305	0.0029984	0.002491	-97	3.25
30:03:06:89	502	-0.85337	-0.00050836	-3.33E-05	0.5213	0.0045319	0.0051346	-0.0039024	0.0477228	0.0336236	-62.8392	0.013702	0.0037594	-0.0010567	22.17494	120.8926	31.24764	-0.0046959	0.0029888	0.00011092	-96	2.75
30:03:07:08	503	-0.85335	-0.00051261	-5.61E-05	0.52134	0.0029316	0.0049591	-0.0020676	0.0467728	0.0361142	-62.8449	0.028824	0.0010328	-0.014366	22.17494	120.8926	31.24313	-0.0040131	0.0037231	-0.0015612	-98	2.5
30:03:07:28	504	-0.85345	-0.00049369	-7.79E-05	0.52118	0.0043564	0.0063705	-0.0056152	0.0436287	0.0371033	-62.8232	-0.013947	0.017151	0.0036888	22.17494	120.8926	31.24422	-0.0053024	0.0041695	-0.0046082	-97	3
30:03:07:48	505	-0.85336	-0.00049609	-5.34E-05	0.52132	0.0047112	0.0032253	-0.0023003	0.0453194	0.0348603	-62.8419	0.011024	0.0018291	-0.0094986	22.17494	120.8926	31.2519	-0.005497	0.0028687	0.0011387	-97	3.25
30:03:07:67	506	-0.8531	-0.00048589	-0.00010172	0.52174	0.0030689	0.0071869	-0.0054893	0.041419	0.0389937	-62.8982	0.00056124	0.012985	-0.0013113	22.17494	120.8926	31.26167	-0.0033398	0.0033646	0.0040817	-97	3.5
30:03:07:87	507	-0.85311	-0.00046946	-7.73E-05	0.52173	0.0029621	0.0026112	0.00034189	0.0412714	0.0356261	-62.8968	-0.0078125	0.00089884	-0.010254	22.17494	120.8926	31.26136	-0.0033665	0.0037708	0.0033321	-98	3.75
30:03:08:06	508	-0.85317	-0.00048262	-7.30E-05	0.52164	0.0050507	0.0030384	-0.0010452	0.04282	0.0359856	-62.8841	-0.0092926	-0.0015478	-0.0045319	22.17494	120.8926	31.26848	-0.0047188	0.0035305	0.003994	-98	3.5
30:03:08:26	509	-0.85335	-0.00049653	-7.03E-05	0.52133	0.0059509	0.0009861	-0.00048041	0.0443552	0.0365351	-62.8432	0.010155	0.01252	-0.0044823	22.17494	120.8926	31.27393	-0.0066872	0.0034008	0.0028496	-98	3.25
30:03:08:45	510	-0.85307	-0.00047711	-7.87E-05	0.52179	0.003746	0.0054016	-0.0031357	0.0419345	0.0362212	-62.9047	-0.010063	0.00086212	-0.0052605	22.17494	120.8926	31.28085	-0.0049858	0.0029678	-0.0015936	-97	3.5
30:03:08:65	511	-0.85316	-0.00046266	-6.75E-05	0.52164	0.0029259	0.0047722	-0.00085115	0.0411947	0.0342589	-62.8852	-0.010101	-0.0067635	-0.013268	22.17494	120.8926	31.29015	-0.0056267	0.0023823	-0.0017319	-98	3.5
30:03:08:85	512	-0.85317	-0.00045235	-2.83E-05	0.52164	0.0042534	0.0016203	7.55E-05	0.0425328	0.029807	-62.8847	-0.0023746	0.0038338	-0.0069504	22.17494	120.8926	31.2927	-0.0058937	0.0036011	-0.0019131	-98	3.75
30:03:09:04	513	-0.85327	-0.00046933	-8.61E-05	0.52147	0.0033417	0.0059624	-0.0030689	0.0407454	0.0364641	-62.8618	-0.012138	0.015228	-0.0028572	22.17494	120.8926	31.30068	-0.006485	0.0043335	-0.0018282	-97	3.25
30:03:09:24	514	-0.85316	-0.00044414	-5.23E-05	0.52165	0.0036144	0.0038052	-0.00074196	0.0402957	0.0316621	-62.8858	-0.020416	0.007328	-0.0028286	22.17494	120.8926	31.30709	-0.0063705	0.0047989	0.00094461	-97	3.25
30:03:09:43	515	-0.85318	-0.00046128	-6.47E-05	0.52162	0.0036888	0.0042191	0.00031352	0.0412298	0.0339	-62.8813	0.0026207	-0.0063324	-0.015991	22.17494	120.8926	31.31578	-0.0070229	0.004364	0.0018082	-98	2.75
30:03:09:63	516	-0.85284	-0.00042809	-0.00010657	0.52217	0.0018873	0.0044594	0.0014582	0.03546	0.0360295	-62.9553	-0.015488	0.014351	0.0009203	22.17494	120.8926	31.32563	-0.0044479	0.0040207	0.0011311	-97	3.5
30:03:09:83	517	-0.8528	-0.00044448	-0.00010005	0.52223	0.0025463	0.0059586	-0.0034714	0.0374488	0.0363759	-62.9642	0.0011168	-0.0091782	-0.011871	22.17494	120.8926	31.32118	-0.005024	0.0042763	-0.00013685	-98	3.25
30:03:10:02	518	-0.85284	-0.00043613	-5.92E-05	0.52217	0.0036545	0.0059662	-0.0034752	0.0390794	0.031883	-62.9561	-0.0014238	0.005127	-0.011368	22.17494	120.8926	31.32781	-0.0054703	0.0045357	0.00018263	-97	3.25
30:03:10:22	519	-0.85275	-0.00043913	-9.76E-05	0.52231	0.0025883	0.007019	-0.0042038	0.037069	0.0358204	-62.9749	0.0025272	0.02063	0.0074234	22.17494	120.8926	31.33819	-0.0046387	0.0054398	0.00030375	-97	3.25
30:03:10:42	520	-0.85276	-0.0003912	-6.83E-05	0.52231	0.00080156	0.0054131	0.00084066	0.0341428	0.0300841	-62.9741	-0.003149	-0.0055542	-0.0067291	22.17494	120.8926	31.34303	-0.0038967	0.0040169	0.00057888	-97	2.75
30:03:10:61	521	-0.85273	-0.00040266	-8.84E-05	0.52236	0.0014858	0.0062294	-0.00072193	0.0340572	0.032736	-62.981	-0.0093231	0.0030174	-0.0052948	22.17494	120.8926	31.34051	-0.0040627	0.0047226	-0.00063562	-97	2.75
30:03:10:81	522	-0.85268	-0.0004012	-5.01E-05	0.52243	0.0028954	0.0020962	0.00086737	0.0362013	0.0289136	-62.9904	0.019913	0.01461	-0.0077515	22.17494	120.8926	31.34411	-0.0041351	0.0057983	-0.0023422	-97	3.25
30:03:11:00	523	-0.85258	-0.00039842	-0.00010961	0.52259	0.0026302	0.0079575	-0.0048714	0.0323618	0.0345678	-63.0125	0.010788	-0.0029888	-0.0063286	22.17494	120.8926	31.34881	-0.0043488	0.0043182	-0.0042839	-97	3.25
30:03:11:20	524	-0.85252	-0.00037945	-0.00012803	0.52269	0.0034237	0.0028934	0.00097466	0.0294008	0.035235	-63.0255	-0.0090714	0.017868	0.012253	22.17494	120.8926	31.35501	-0.0041161	0.0047607	0.00089502	-97	3.5
30:03:11:40	525	-0.85258	-0.00037497	-0.00010852	0.52259	0.0019798	0.0078659	-0.0043221	0.030135	0.0330568	-63.0129	-0.0079117	-0.0065575	-0.00013638	22.17494	120.8926	31.36398	-0.0039253	0.0043221	0.00011563	-98	3.5
30:03:11:59	526	-0.85257	-0.00037656	-8.69E-05	0.52262	0.0030441	0.0044022	-0.0014753	0.0315875	0.0310363	-63.0157	0.023392	-0.0060616	-0.01889	22.17494	120.8926	31.36169	-0.0040169	0.0054321	-0.00087595	-97	3.75
30:03:11:79	527	-0.85236	-0.0003752	-0.00011238	0.52296	0.0024452	0.0072823	-0.0032654	0.0299116	0.0334613	-63.0624	0.01516	0.027847	0.0020733	22.17494	120.8926	31.36905	-0.0026302	0.0057449	0.0013628	-97	4
30:03:11:98	528	-0.85259	-0.00039368	-0.00011063	0.52258	0.0029144	0.0035572	0.00038815	0.0318375	0.0343837	-63.0108	0.021561	0.0033836	-0.0095978	22.17494	120.8926	31.37696	-0.0040855	0.0060349	0.0035114	-98	4.25
30:03:12:18	529	-0.85247	-0.00037003	-4.75E-05	0.52278	0.0028191	0.005352	-0.00020075	0.0333033	0.0268024	-63.0384	0.023331	-0.0016689	-0.003891	22.17494	120.8926	31.38127	-0.0029907	0.0051651	0.0035896	-98	4
30:03:12:37	530	-0.85242	-0.0003977	-0.00011019	0.52286	0.0028267	0.0046158	-0.0010691	0.0322454	0.0345915	-63.049	0.0077095	0.015305	-0.0013685	22.17494	120.8926	31.3859	-0.0031281	0.0046158	0.001688	-98	4
30:03:12:57	531	-0.85241	-0.00039225	-9.53E-05	0.52287	0.0029259	0.0024967	0.00022364	0.032604	0.032813	-63.0505	0.019806	-0.0078964	-0.010857	22.17494	120.8926	31.3843	-0.0029678	0.0053864	0.00062323	-98	3.5
30:03:12:77	532	-0.85208	-0.00039995	-0.0001113	0.52341	0.00038624	0.0067825	-0.0021019	0.0323762	0.0348557	-63.123	0.036163	0.020004	0.00076103	22.17494	120.8926	31.38792	-2.99E-05	0.004406	-0.0024891	-97	3.5
30:03:12:96	533	-0.85219	-0.00040298	-0.00012553	0.52323	0.0011606	0.0067787	-0.0026608	0.0318256	0.0364209	-63.0989	-0.0004499	0.015823	-0.0027199	22.17494	120.8926	31.39033	-0.0011835	0.0054474	-0.0037251	-97	3.75
30:03:13:16	534	-0.85237	-0.00038959	-0.00012169	0.52293	0.00017142	0.0070457	-0.00093889	0.0307615	0.035232	-63.0582	0.01651	-0.028152	-0.0092316	22.17494	120.8926	31.39468	-0.0017996	0.0038776	-0.0043449	-97	3.25
30:03:13:35	535	-0.85238	-0.00038987	-0.00012264	0.52293	0.00073099	0.005249	-3.92E-05	0.0307321	0.0353411	-63.0581	0.0055618	0.02182	0.0028343	22.17494	120.8926	31.39075	-0.0020275	0.0053368	-0.005394	-97	4
30:03:13:55	536	-0.85219	-0.00039344	-0.00011067	0.52323	-0.00050545	0.0076981	-0.00054216	0.0317851	0.0343968	-63.0977	0.00087738	-0.0040779	-0.010605	22.17494	120.8926	31.39544	-0.00055885	0.0050545	-0.004818	-97	3.75
30:03:13:75	537	-0.85221	-0.00039291	-0.00011215	0.5232	0.001009	0.0041313	0.0018311	0.0316465	0.0345092	-63.0936	-0.0089569	-0.020752	-0.014496	22.17494	120.8926	31.40083	-0.0015068	0.0056419	-0.0016108	-98	4
30:03:13:94	538	-0.85212	-0.00038289	-0.00011876	0.52335	0.00036335	0.00811	-0.0051727	0.0302647	0.0345588	-63.1145	0.0023499	0.0062256	-0.013214	22.17494	120.8926	31.40976	-0.0015469	0.0060005	0.0025158	-97	4.25
30:03:14:14	539	-0.85231	-0.00038318	-0.0001026	0.52304	0.0014448	0.0032539	0.00046372	0.0312746	0.032987	-63.0726	0.0066452	-0.013123	-0.0039902	22.17494	120.8926	31.41535	-0.0024529	0.005825	0.0039673	-97	4
30:03:14:33	540	-0.85231	-0.00038467	-0.00016621	0.52304	5.13E-06	0.0090485	-0.0045395	0.0276082	0.0392888	-63.0728	-0.021378	-0.0029144	0.0081406	22.17494	120.8926	31.40828	-0.0021572	0.0056038	0.0017595	-98	3.5
30:03:14:53	541	-0.85221	-0.00039463	-0.00011844	0.5232	0.002121	0.0047112	-0.0010767	0.0314368	0.0352261	-63.0939	-0.010292	0.0062866	-0.0064354	22.17494	120.8926	31.41399	-0.0019627	0.0058899	0.0042458	-98	3.75
30:03:14:73	542	-0.85215	-0.00039674	-9.07E-05	0.5233	0.0030804	0.0073204	-0.005127	0.0333054	0.0326426	-63.1072	0.0021172	-0.0035667	-0.0025826	22.17494	120.8926	31.41596	-0.0030727	0.0046768	0.0019207	-97	4
30:03:14:92	543	-0.85218	-0.00038018	-0.00010853	0.52324	0.0025654	0.0030956	0.0013332	0.0306184	0.0333929	-63.1001	-0.012665	-0.018036	-0.011749	22.17494	120.8926	31.41868	-0.0027428	0.0054321	0.0012646	-97	3.5
30:03:15:12	544	-0.85217	-0.00039009	-0.00010438	0.52326	0.0026226	0.0060196	-0.0021801	0.0318341	0.0335834	-63.1023	-0.0064049	0.018646	0.01223	22.17494	120.8926	31.41012	-0.0024281	0.0068779	-0.00040698	-97	3.5
30:03:15:32	545	-0.852	-0.00039114	-9.88E-05	0.52354	0.0017509	0.0036297	-5.70E-05	0.0322623	0.033109	-63.1396	-0.010254	0.0054169	-0.0062981	22.17494	120.8926	31.41467	-0.0017195	0.005867	0.00048733	-98	3.75
30:03:15:51	546	-0.85196	-0.00040848	-0.00010712	0.52361	0.0021267	0.0044594	3.74E-05	0.0334512	0.0349678	-63.15	0.0021839	-0.0058289	-0.014023	22.17494	120.8926	31.42118	-0.001667	0.0048332	0.0001502	-98	4
30:03:15:71	547	-0.85211	-0.00039925	-0.00010553	0.52336	0.0030708	0.0053406	-0.0021973	0.0326562	0.0342487	-63.1157	-0.0076103	0.022598	-0.00092983	22.17494	120.8926	31.42471	-0.0032177	0.0061531	-0.0023632	-97	3.5
30:03:15:91	548	-0.85169	-0.00039571	-7.85E-05	0.52405	0.0039902	0.005558	-0.0035362	0.0339056	0.0314249	-63.2081	0.011108	-0.0022793	-0.018509	22.17494	120.8926	31.42864	-0.00053072	0.0059891	-0.0029087	-97	3.75
30:03:16:10	549	-0.85167	-0.00040115	-0.00012374	0.52408	0.0023994	0.0042801	-0.0012827	0.0317182	0.0361673	-63.2132	0.0041809	0.0042915	-0.0044556	22.17494	120.8926	31.41844	-0.00037813	0.0063858	-0.0051079	-98	3
30:03:16:30	550	-0.85186	-0.00039027	-8.28E-05	0.52376	0.002924	0.0048637	-0.00051785	0.0331275	0.0315062	-63.1701	0.016159	0.01857	0.0040855	22.17494	120.8926	31.43178	-0.0016232	0.0063667	0.0001359	-97	3.5
30:03:16:50	551	-0.85165	-0.000409	-9.76E-05	0.52412	0.003952	0.0058479	-0.0020981	0.0340561	0.0340843	-63.2174	0.010384	0.0094604	-0.007782	22.17494	120.8926	31.43799	-0.0014009	0.0045052	-0.0001452	-97	3
30:03:16:69	552	-0.85166	-0.00038112	-7.93E-05	0.52409	0.0036812	0.0025845	3.73E-05	0.0324313	0.0306295	-63.2136	0.0047722	-0.0046158	-0.0098801	22.17494	120.8926	31.44773	-0.0020142	0.0034199	-0.0002954	-98	3
30:03:16:89	553	-0.85168	-0.00038524	-9.19E-05	0.52406	0.0031281	0.005703	-0.0049553	0.0320766	0.032108	-63.2104	-0.0032787	0.019669	-0.0089569	22.17494	120.8926	31.45526	-0.0016899	0.0046234	-0.0025177	-97	3
30:03:17:08	554	-0.85172	-0.00036906	-1.57E-05	0.524	0.0020733	0.0034161	0.00041151	0.0350804	0.0236883	-63.2015	0.03714	-0.0058517	-0.0028667	22.17494	120.8926	31.44792	-0.0010529	0.0051041	-0.0044861	-97	2.75
30:03:17:28	555	-0.85152	-0.00040244	-7.59E-05	0.52432	0.0019608	0.007988	-0.0060234	0.0347074	0.0315886	-63.2444	0.0159	0.015007	0.0086212	22.17494	120.8926	31.45119	-0.0012989	0.0041275	-0.0065002	-97	3.75
30:03:17:48	556	-0.85154	-0.00039945	-4.64E-05	0.52428	0.0022068	0.0047302	-0.0011473	0.0361915	0.0285249	-63.2402	0.0043564	0.022461	0.0053482	22.17494	120.8926	31.45798	-0.0015354	0.0042725	-0.0055313	-98	3.5
30:03:17:67	557	-0.85151	-0.0004066	-2.01E-05	0.52433	0.0034523	0.0068016	-0.0055008	0.0384677	0.0263893	-63.2469	0.0112	-0.010818	-0.010918	22.17494	120.8926	31.46792	-0.001936	0.0043564	0.0013895	-97	3.5
30:03:17:87	558	-0.85148	-0.00041177	-5.05E-05	0.52438	0.002224	0.004734	-0.0012693	0.0371453	0.0296671	-63.2535	0.024475	0.019089	-0.006649	22.17494	120.8926	31.45741	-0.0014906	0.0053101	-0.0016851	-97	4
30:03:18:06	559	-0.85159	-0.0004054	-5.09E-05	0.52422	0.0023251	0.0062637	-0.0020771	0.0365017	0.0293231	-63.2309	0.015053	-0.0012684	-0.0045662	22.17494	120.8926	31.46967	-0.0021992	0.0060387	0.0043373	-97	3.75
30:03:18:26	560	-0.85154	-0.00043514	-0.00011033	0.52429	0.0037422	0.0040474	-0.00088453	0.0358324	0.0369084	-63.2404	-0.017578	-0.011925	0.0017099	22.17494	120.8926	31.48002	-0.0027962	0.0055618	0.007473	-97	3.75
30:03:18:45	561	-0.85145	-0.00043531	-6.20E-05	0.52444	0.0022392	0.0078735	-0.006443	0.0387474	0.032208	-63.2616	0.027618	-0.0011578	-0.004818	22.17494	120.8926	31.48916	-0.0019188	0.005661	0.010307	-97	3.75
30:03:18:65	562	-0.85143	-0.00045535	-8.48E-05	0.52447	0.0020256	0.0053101	-0.0021954	0.0393319	0.035637	-63.2645	0.034027	0.0038815	-0.020096	22.17494	120.8926	31.49609	-0.0018206	0.0052261	0.0090027	-97	3.75
30:03:18:85	563	-0.85147	-0.00040837	-8.91E-05	0.5244	0.0018167	0.007473	-0.0022831	0.0344895	0.0332358	-63.2562	-0.012688	-0.0075302	-0.012398	22.17494	120.8926	31.48812	-0.0022526	0.0049934	0.0061073	-97	3.75
30:03:19:04	564	-0.85147	-0.00043156	-0.00012102	0.5244	0.0027981	0.0073128	-0.0055199	0.0348358	0.0377411	-63.2552	-0.039185	0.019653	0.00028324	22.17494	120.8926	31.49307	-0.0035992	0.0045319	0.0043716	-97	4.25
30:03:19:24	565	-0.85145	-0.00045419	-8.19E-05	0.52444	0.0028381	0.003994	-0.0013771	0.0393932	0.0352849	-63.2612	0.0038433	-0.016159	-0.012169	22.17494	120.8926	31.49811	-0.0037365	0.0033836	0.001092	-97	3.75
30:03:19:43	566	-0.85134	-0.00044085	-9.89E-05	0.52461	0.0011177	0.0055313	-0.001893	0.0370643	0.0361475	-63.284	0.031036	-0.011566	-0.010948	22.17494	120.8926	31.51048	-0.0027809	0.0039253	0.0029354	-97	4
30:03:19:63	567	-0.85149	-0.00042516	-0.00010383	0.52437	0.0027905	0.0027351	0.002533	0.0352451	0.035678	-63.2512	-0.0016756	0.02504	0.0022278	22.17494	120.8926	31.52091	-0.0040245	0.0041046	0.0041428	-97	3.75
30:03:19:83	568	-0.85145	-0.00042698	-0.0001234	0.52444	0.0048332	0.0058899	-0.0051613	0.0342434	0.0377003	-63.2616	-0.0093079	-0.0036945	-0.0035839	22.17494	120.8926	31.51046	-0.0056267	0.0045967	0.002058	-97	3.75
30:03:20:02	569	-0.85134	-0.00043271	-9.49E-05	0.52462	0.0041351	0.008316	-0.0068436	0.0365104	0.0352673	-63.2853	0.017014	0.0021706	-0.0056	22.17494	120.8926	31.52067	-0.0042419	0.0041504	0.0038853	-98	3.75
30:03:20:22	570	-0.8511	-0.00044412	-9.76E-05	0.52501	0.0025082	0.0079422	-0.0047989	0.0374413	0.0362393	-63.3377	0.014282	0.02092	-8.20E-05	22.17494	120.8926	31.5283	-0.0021858	0.0034199	0.0018435	-98	3.75
30:03:20:41	571	-0.85108	-0.0004373	-9.59E-05	0.52504	0.0045738	0.0032864	-0.0014744	0.0368798	0.0356601	-63.3415	-0.0066376	-0.011452	-0.0034599	22.17494	120.8926	31.54095	-0.0030689	0.0032578	0.0018559	-97	3.75
30:03:20:61	572	-0.85107	-0.00042693	-8.72E-05	0.52505	0.0043793	0.0061913	-0.0049553	0.0363898	0.0341913	-63.3438	-6.09E-05	0.0066566	-0.0020351	22.17494	120.8926	31.53501	-0.0030994	0.0032539	4.11E-06	-98	3.25
30:03:20:81	573	-0.85105	-0.00044985	-0.00011041	0.52508	0.0035992	0.0022163	0.00073099	0.0372281	0.0378352	-63.3473	0.014198	0.021866	-0.0070038	22.17494	120.8926	31.54785	-0.0028858	0.0036278	0.0010614	-97	3.75
30:03:21:00	574	-0.85087	-0.00046093	-0.00012451	0.52537	0.0022907	0.007122	-0.005127	0.037446	0.0398889	-63.3863	0.005703	0.0003202	-0.0063591	22.17494	120.8926	31.55457	-0.00076246	0.0033607	-0.0015392	-98	3.75
30:03:21:20	575	-0.85081	-0.00045153	-0.00014118	0.52548	0.0039063	0.0035629	0.00028515	0.0355208	0.0409537	-63.4013	0.0026226	0.010315	-0.0024567	22.17494	120.8926	31.55946	-0.0011292	0.0034752	-0.0023346	-98	3.75
30:03:21:40	576	-0.85081	-0.00043562	-0.00013276	0.52547	0.0033951	0.0064201	-0.0048561	0.0344769	0.0391745	-63.4	0.0011549	0.0066528	-0.003582	22.17494	120.8926	31.56794	-0.0016356	0.0034256	-0.0026913	-98	4
30:03:21:59	577	-0.8508	-0.00044481	-0.00013527	0.52549	0.0031643	0.0025101	0.00082636	0.0352204	0.0399733	-63.4029	-0.0063477	-0.011086	-0.0082474	22.17494	120.8926	31.55959	-0.0012159	0.0038204	-0.0050888	-97	3.5
30:03:21:79	578	-0.85079	-0.00043229	-0.0001129	0.52551	0.0038376	0.0044785	-0.0016928	0.0353464	0.0370385	-63.4046	-0.0015144	0.014832	0.00214	22.17494	120.8926	31.56953	-0.00079966	0.0042152	-0.0044632	-98	3.75
30:03:21:99	579	-0.85079	-0.00044157	-8.69E-05	0.52551	0.0042877	0.0022488	-0.00098419	0.0378156	0.0350659	-63.4056	0.011871	0.0058289	-0.012497	22.17494	120.8926	31.57738	-0.0018024	0.0042534	-0.0027637	-97	4
30:03:22:18	580	-0.85073	-0.00041172	-7.72E-05	0.5256	0.0026836	0.0070038	-0.0055695	0.0354866	0.0323241	-63.4166	0.018112	0.0094757	-0.0072327	22.17494	120.8926	31.58782	-0.0013533	0.0045319	-0.0012465	-98	4
30:03:22:38	581	-0.85063	-0.00042684	-8.35E-05	0.52576	0.0041046	0.0043411	-0.0019016	0.036578	0.0338516	-63.4389	0.0050163	0.0083466	-0.0025711	22.17494	120.8926	31.5966	-0.0014086	0.0029411	-0.0018034	-97	3.75
30:03:22:57	582	-0.8506	-0.00044016	-0.00012331	0.52582	0.0036716	0.0049324	-0.002512	0.035473	0.0385412	-63.4463	-0.011696	-0.0015364	-0.0066795	22.17494	120.8926	31.58552	-0.00081062	0.0039291	-0.0045586	-97	3.5
30:03:22:77	583	-0.85067	-0.00045036	-0.00010395	0.5257	0.0020962	0.0065689	-0.0048943	0.0376388	0.0372634	-63.4314	0.030243	-0.004818	-0.008812	22.17494	120.8926	31.59657	-0.0012369	0.0039291	-0.00054359	-98	4
30:03:22:96	584	-0.85069	-0.00044447	-7.83E-05	0.52566	0.0039043	0.0035686	-0.0013008	0.0386139	0.0344016	-63.426	0.018295	0.008522	-0.011208	22.17494	120.8926	31.60669	-0.0017605	0.0050278	0.00071764	-97	4.25
30:03:23:16	585	-0.8506	-0.00043835	-0.00011186	0.52582	0.0040474	0.004982	-0.0023422	0.0359865	0.0373159	-63.4465	0.0034542	-0.013855	-0.0027561	22.17494	120.8926	31.61158	-0.0015545	0.0049019	0.00068808	-97	4.25
30:03:23:36	586	-0.85059	-0.00043423	-0.00010971	0.52583	0.003376	0.0058746	-0.0053177	0.0357139	0.0368585	-63.4488	-0.0077515	-0.0029964	-0.0050087	22.17494	120.8926	31.60006	-0.0014639	0.005455	-0.0017118	-97	4.5
30:03:23:55	587	-0.8507	-0.00046046	-0.00013236	0.52565	0.0020084	0.0083313	-0.0049019	0.0369149	0.0406388	-63.4237	0.0085144	0.0080338	-0.0079803	22.17494	120.8926	31.61141	-0.0023632	0.0065727	0.00015628	-97	4.25
30:03:23:75	588	-0.85068	-0.00046817	-9.32E-05	0.52569	0.0035133	0.003664	-0.00055742	0.0400211	0.0372903	-63.4295	0.010483	0.00047445	-0.0022011	22.17494	120.8926	31.61788	-0.003582	0.0049896	0.00042963	-97	3.5
30:03:23:95	589	-0.85069	-0.00046711	-0.00010961	0.52567	0.0045128	0.0064507	-0.0058517	0.0389318	0.0388229	-63.4272	-0.0098953	0.012596	0.0013933	22.17494	120.8926	31.62647	-0.004261	0.0062103	0.0018692	-97	4.25
30:03:24:14	590	-0.85063	-0.00047223	-0.00010561	0.52576	0.0038414	0.0032177	-0.00012791	0.039668	0.0387456	-63.4393	-0.00046349	-0.0093079	-0.014374	22.17494	120.8926	31.63474	-0.0045204	0.0048981	0.0034962	-98	4
30:03:24:34	591	-0.85058	-0.00049188	-0.00017552	0.52585	0.003252	0.0067749	-0.0045052	0.0373668	0.0467478	-63.4512	0.0013123	-0.00061703	-0.0043221	22.17494	120.8926	31.62063	-0.0037289	0.0052605	0.00052309	-98	4
30:03:24:53	592	-0.85057	-0.00047303	-0.00014981	0.52587	0.0034714	0.0021782	0.00017905	0.037078	0.0431066	-63.4535	-0.0085449	0.0063972	-0.0035248	22.17494	120.8926	31.62524	-0.0037632	0.0060883	-0.00069427	-97	4
30:03:24:73	593	-0.85059	-0.0004679	-0.00011932	0.52582	0.004261	0.0033741	-0.0024109	0.0384174	0.0398238	-63.4471	-0.018692	0.0040894	0.0022736	22.17494	120.8926	31.63392	-0.0053329	0.0050926	0.00082684	-97	4
30:03:24:93	594	-0.85055	-0.00048194	-0.00013717	0.52589	0.0030518	0.0028801	0.00032449	0.0387068	0.0424116	-63.456	-0.0050507	0.0044708	-0.0001936	22.17494	120.8926	31.64135	-0.0050163	0.0051727	0.003809	-97	4.25
30:03:25:12	595	-0.85049	-0.00045825	-0.00012378	0.52598	0.0025673	0.003458	-0.00059462	0.0371998	0.039684	-63.4689	-0.011345	-0.0050163	-0.0064545	22.17494	120.8926	31.64642	-0.0049553	0.0043526	0.0047073	-97	4
30:03:25:32	596	-0.85045	-0.00049007	-0.00016852	0.52605	0.003418	0.0047226	-0.0035267	0.0376009	0.0459644	-63.4778	-0.019531	-7.51E-06	-0.0058823	22.17494	120.8926	31.63498	-0.0053139	0.0047607	0.0021191	-98	4.25
30:03:25:51	597	-0.85046	-0.00047087	-9.44E-05	0.52604	0.0037403	0.0034428	-0.0014076	0.040199	0.0375836	-63.476	-0.010536	0.013741	-0.004055	22.17494	120.8926	31.64211	-0.0053444	0.0042534	0.0036602	-98	4
30:03:25:71	598	-0.85025	-0.00048078	-0.00013786	0.52638	0.0039482	0.003252	0.00035119	0.0385277	0.0424315	-63.5218	-0.0043526	0.003231	-0.007061	22.17494	120.8926	31.64893	-0.0044823	0.0020542	0.00047612	-97	4
30:03:25:91	599	-0.85026	-0.00047064	-0.00014666	0.52637	0.0032997	0.003849	-0.00019503	0.0370089	0.0426776	-63.521	-0.020142	-0.0036163	0.0037498	22.17494	120.8926	31.65733	-0.0033245	0.0023632	-0.00091887	-97	4
30:03:26:10	600	-0.85022	-0.00049711	-0.00018743	0.52643	0.0026264	0.0049553	-0.0028992	0.0371252	0.0482494	-63.5298	-0.016296	0.0019798	-0.0022678	22.17494	120.8926	31.64752	-0.0028343	0.0025711	-0.0032368	-97	3.5
30:03:26:30	601	-0.85022	-0.00052046	-0.00019563	0.52643	0.0042419	0.0017357	-0.00019753	0.0389062	0.0504562	-63.5288	0.0086746	-0.0089264	-0.012413	22.17494	120.8926	31.65457	-0.0045738	0.002224	0.0007453	-99	4
30:03:26:50	602	-0.85019	-0.00052978	-0.00021455	0.52648	0.0041695	0.0072479	-0.005703	0.0386697	0.052864	-63.5362	0.004673	0.0019054	-0.0096741	22.17494	120.8926	31.66201	-0.004776	0.0017099	0.0019932	-97	3.75
30:03:26:69	603	-0.85021	-0.00049409	-0.00019525	0.52644	0.0042534	0.0028877	0.0005002	0.0363589	0.0488285	-63.53	-0.010666	0.004734	-0.0059319	22.17494	120.8926	31.66585	-0.0032501	0.0014219	0.0013075	-97	4
30:03:26:89	604	-0.85022	-0.00048975	-0.00021182	0.52643	0.0043564	0.0035954	-0.001955	0.0349368	0.0501809	-63.5295	-0.014832	-0.0040817	0.003933	22.17494	120.8926	31.67498	-0.0032654	0.0019312	0.003994	-98	3.75
30:03:27:08	605	-0.8502	-0.00049134	-0.00019296	0.52646	0.0027447	0.0055542	-0.0023975	0.0362287	0.048441	-63.5326	0.013	-0.011909	-0.015717	22.17494	120.8926	31.66423	-0.0023613	0.0019188	0.0015373	-97	3.5
30:03:27:28	606	-0.85017	-0.00049473	-0.00017821	0.52651	0.0035591	0.0047188	-0.0012379	0.0374461	0.0472106	-63.5395	0.021896	0.0091553	0.00010204	22.17494	120.8926	31.67523	-0.0015717	0.0015755	0.0048065	-98	4.25
30:03:27:48	607	-0.85013	-0.00049057	-0.0002327	0.52658	0.0045052	0.0021381	0.00097942	0.0337486	0.0522712	-63.549	0.0022545	-0.017349	-0.0069923	22.17494	120.8926	31.68857	-0.0025291	0.0013933	0.0064926	-97	3.75
30:03:27:67	608	-0.84998	-0.00050871	-0.00027228	0.52682	0.0047035	0.0056496	-0.0050354	0.0331114	0.0572305	-63.5811	-0.0026264	0.01152	0.00086784	22.17494	120.8926	31.70221	-0.0029621	-0.000211	0.009285	-97	4
30:03:27:87	609	-0.84994	-0.00051009	-0.00029922	0.52688	0.0033989	0.0077362	-0.0059624	0.0316154	0.0599393	-63.5893	0.02417	-0.0034771	-0.0026054	22.17494	120.8926	31.69538	-0.0017624	0.00042272	0.0067787	-98	4
30:03:28:07	610	-0.85006	-0.00051698	-0.00032494	0.52668	0.0033932	0.0061798	-0.0050964	0.0307475	0.0628538	-63.5629	0.019791	-0.015244	-0.0027618	22.17494	120.8926	31.70863	0.00032854	0.0014467	0.0082321	-96	4
30:03:28:26	611	-0.85003	-0.0005307	-0.00033562	0.52673	0.0046272	0.0025978	0.00026536	0.0314359	0.0647241	-63.5701	0.01313	0.0031719	-0.0022717	22.17494	120.8926	31.71631	0.00069284	0.00064135	0.0080032	-97	4.25
30:03:28:46	612	-0.84989	-0.00052883	-0.00030881	0.52695	0.0050507	0.0061531	-0.0043793	0.0328559	0.0620085	-63.5995	0.029556	0.014542	-0.010468	22.17494	120.8926	31.72668	-0.0012598	-0.00084734	0.0040741	-98	4.5
30:03:28:66	613	-0.84977	-0.00052629	-0.00032597	0.52715	0.0042686	0.0046463	-0.0022125	0.0315575	0.0635331	-63.6256	0.020462	0.00072479	-0.0065536	22.17494	120.8926	31.73379	-3.51E-05	-0.002512	0.00065422	-97	4.5
30:03:28:85	614	-0.84976	-0.00053036	-0.00034989	0.52717	0.0040169	0.0042419	-0.0030003	0.0305075	0.0661092	-63.6294	0.0026302	0.002346	-0.0049782	22.17494	120.8926	31.7238	0.00034976	-0.0025215	-0.0020542	-98	4.75
30:03:29:05	615	-0.84968	-0.00054002	-0.0003299	0.5273	0.0039406	0.0060196	-0.005291	0.0326458	0.0647512	-63.6469	0.017365	0.00060606	-0.0049477	22.17494	120.8926	31.73009	0.00012827	-0.0027695	-0.0039101	-98	4.5
30:03:29:25	616	-0.84974	-0.00053287	-0.00032169	0.5272	0.0040665	0.0062218	-0.0049934	0.032453	0.0635167	-63.6333	0.01741	0.010056	-0.00035858	22.17494	120.8926	31.73806	0.00012338	-0.002697	-0.0042343	-97	4.25
30:03:29:44	617	-0.8499	-0.00052711	-0.0003502	0.52695	0.0035744	0.0059242	-0.0035191	0.0301893	0.0659353	-63.5991	0.014343	0.013214	-0.0057602	22.17494	120.8926	31.74659	0.00045729	-0.0016623	-0.0014935	-98	4.25
30:03:29:64	618	-0.84994	-0.00051957	-0.00033932	0.52688	0.0039711	0.0044899	-0.0019474	0.0301177	0.0644182	-63.5894	0.011589	0.0034885	-0.0070953	22.17494	120.8926	31.75231	0.001029	-0.0014381	-0.0016088	-98	4
30:03:29:83	619	-0.84993	-0.00052486	-0.00034991	0.5269	0.0029926	0.0073853	-0.0058174	0.0299918	0.0657692	-63.592	0.0098343	-0.0020695	0.0045052	22.17494	120.8926	31.74085	0.0017939	-0.0015631	-0.0040817	-98	4
30:03:30:03	620	-0.84987	-0.0005383	-0.00035741	0.52699	0.0036316	0.0027428	-0.0010157	0.0308403	0.0673146	-63.6044	0.0027275	0.0046425	0.0032787	22.17494	120.8926	31.74758	0.001585	-0.0013189	-0.0019722	-98	4
30:03:30:23	621	-0.84978	-0.00053788	-0.00036246	0.52713	0.0034561	0.0054474	-0.0036716	0.0304829	0.0677862	-63.6236	0.0038414	0.0033855	-0.0043449	22.17494	120.8926	31.7563	0.00043964	-0.0016842	-0.0013199	-97	3.25
30:03:30:42	622	-0.84992	-0.00051189	-0.00034723	0.52692	0.0033283	0.002367	0.0011797	0.0288893	0.0647257	-63.5946	-0.00041723	0.010391	-0.0028286	22.17494	120.8926	31.76486	0.0014086	-0.00056553	-0.0004921	-98	3
30:03:30:62	623	-0.84987	-0.00054156	-0.000411	0.52699	0.0033188	0.0061531	-0.0043488	0.0279212	0.0727311	-63.6052	-0.010902	-9.60E-06	-0.006073	22.17494	120.8926	31.75387	0.0018015	-0.00021183	-0.0031166	-98	4
30:03:30:81	624	-0.8498	-0.00052441	-0.00035282	0.52711	0.0039063	0.0024929	9.27E-05	0.0297557	0.0660335	-63.6209	0.011841	-0.0083923	-0.016937	22.17494	120.8926	31.76	0.0020905	-0.0012617	-0.0019503	-98	3.75
30:03:31:01	625	-0.84983	-0.00053191	-0.00037807	0.52705	0.002367	0.0076103	-0.0041542	0.0289658	0.0689432	-63.6126	-0.0054665	0.0052414	0.0075836	22.17494	120.8926	31.77136	0.002964	-0.00061464	-0.00073767	-99	4.25
30:03:31:21	626	-0.84984	-0.00053389	-0.00038615	0.52704	0.0023117	0.0055771	-0.0029316	0.0286712	0.0698486	-63.6112	-0.011276	0.003582	0.0016527	22.17494	120.8926	31.77719	0.0021801	0.00016642	-0.00014579	-98	4.25
30:03:31:40	627	-0.84978	-0.00054559	-0.00034367	0.52713	0.0041008	0.0044594	-0.0020027	0.0323692	0.0664216	-63.6237	0.00065899	-0.0051613	-0.0082245	22.17494	120.8926	31.78436	0.0014811	-0.00039124	-0.00046277	-98	4.25
30:03:31:60	628	-0.84975	-0.00056804	-0.00034318	0.52718	0.0045815	0.0023899	-0.00021231	0.0345806	0.0677324	-63.6302	0.010712	0.0011129	-0.00065327	22.17494	120.8926	31.77537	0.0016222	-0.00033808	-0.0023327	-99	4.25
30:03:31:79	629	-0.84966	-0.00055804	-0.00033847	0.52733	0.0031719	0.0060501	-0.0040016	0.0338801	0.066676	-63.6503	0.0031509	-0.0026569	-0.0033512	22.17494	120.8926	31.77835	0.00214	-0.00091267	-0.0055733	-98	4
30:03:31:99	630	-0.84965	-0.00053814	-0.00032064	0.52735	0.0036697	0.0023079	-5.96E-08	0.0330183	0.0637388	-63.6538	-0.0076447	-0.0040932	0.0054054	22.17494	120.8926	31.78563	0.0025425	-0.0011559	-0.0046616	-99	4.5
30:03:32:19	631	-0.8496	-0.00055875	-0.00028679	0.52742	0.0045204	0.0048561	-0.004406	0.037065	0.0616905	-63.663	0.017624	-0.0035763	-0.0044937	22.17494	120.8926	31.78467	0.0010004	-0.0015488	-0.0048103	-99	4.5
30:03:32:38	632	-0.84952	-0.00055185	-0.00031491	0.52756	0.0039024	0.0065422	-0.0052719	0.0346834	0.0640167	-63.6818	0.01532	-0.0042801	-0.011635	22.17494	120.8926	31.79035	0.002346	-0.0019741	-0.0014734	-99	4.5
30:03:32:58	633	-0.84954	-0.00053128	-0.0003148	0.52752	0.0038013	0.0058403	-0.0031891	0.0326905	0.0627616	-63.6763	-0.018723	-0.018906	-0.0043678	22.17494	120.8926	31.77462	0.0025768	-0.0023232	-0.0047417	-99	3.5
30:03:32:77	634	-0.84948	-0.00056375	-0.00034657	0.52762	0.0050545	0.001894	-0.00049543	0.0339238	0.0678211	-63.6891	-0.0030613	0.0054359	-0.0073013	22.17494	120.8926	31.77503	0.0023994	-0.0018177	-0.0057793	-98	3.75
30:03:32:97	635	-0.84952	-0.00054941	-0.00030476	0.52756	0.0055161	0.0033779	-0.0021439	0.0350601	0.0628817	-63.6817	0.0077286	-0.002676	-0.0056267	22.17494	120.8926	31.77611	0.0018826	-0.00066566	-0.0037651	-97	3.75
30:03:33:17	636	-0.84945	-0.00053738	-0.00030395	0.52766	0.0032444	0.0050049	-0.0015011	0.03393	0.06208	-63.6953	0.0055656	0.0046921	0.0074768	22.17494	120.8926	31.78146	0.0022869	-0.00070953	-0.00097656	-97	4
30:03:33:36	637	-0.84948	-0.0005365	-0.00028556	0.52762	0.0033512	0.005024	-0.00033331	0.0349594	0.0602347	-63.6902	-0.0093613	0.0093079	0.0015182	22.17494	120.8926	31.76567	0.0022526	-0.00050259	-0.004406	-97	3.25
30:03:33:56	638	-0.8493	-0.0005579	-0.00029781	0.52792	0.0045662	0.006855	-0.0057831	0.0362799	0.062733	-63.7294	0.0026646	-0.0025845	-0.0035286	22.17494	120.8926	31.76752	0.0016413	-0.0010815	-0.0051994	-98	3.5
30:03:33:75	639	-0.84931	-0.00055294	-0.00028046	0.52789	0.0044403	0.0036411	-0.0023861	0.036849	0.060744	-63.7256	0.031464	0.0091629	-0.014038	22.17494	120.8926	31.77251	0.0019121	-0.0004847	-0.0045166	-98	3.5
30:03:33:95	640	-0.8494	-0.00053927	-0.00028645	0.52774	0.0034637	0.0071831	-0.0055542	0.0351664	0.0604931	-63.7063	0.023743	0.01532	-0.0025215	22.17494	120.8926	31.77975	0.0037117	0.00026298	-0.0043869	-98	3.5
30:03:34:15	641	-0.84926	-0.00053018	-0.00031316	0.52798	0.0028667	0.0020866	0.0014849	0.0326486	0.062553	-63.738	-0.0041389	0.0091248	0.00018024	22.17494	120.8926	31.78225	0.0029335	0.00014234	-0.0032387	-98	3.5
30:03:34:34	642	-0.84925	-0.00052645	-0.00030119	0.52799	0.0035095	0.0065613	-0.0053787	0.0330096	0.0611628	-63.7395	0.007534	0.0037785	0.0037537	22.17494	120.8926	31.76892	0.0026112	-0.00018537	-0.0061378	-98	3.75
30:03:34:54	643	-0.84917	-0.00053286	-0.0002915	0.52811	0.0039139	0.0035801	-0.0011759	0.0342111	0.0606124	-63.7563	0.022156	0.0042839	-0.0070572	22.17494	120.8926	31.7738	0.0016184	0.0011406	-0.0012598	-98	3.5
30:03:34:73	644	-0.84915	-0.00050429	-0.00029356	0.52816	0.0016413	0.007515	-0.0023613	0.0313028	0.0590857	-63.7623	-0.0081024	-0.014961	-0.014709	22.17494	120.8926	31.77359	0.0039444	-8.45E-05	-0.0010967	-99	4
30:03:34:93	645	-0.84903	-0.00052405	-0.00034731	0.52835	0.0025196	0.0063133	-0.0031567	0.0299577	0.0655183	-63.7881	-0.023209	0.010056	0.0060463	22.17494	120.8926	31.77567	0.003334	-0.00017154	-0.0019445	-98	3.75
30:03:35:13	646	-0.84904	-0.00052419	-0.00025056	0.52832	0.0040359	0.0046005	-0.0033188	0.0358309	0.0561122	-63.7841	0.013641	0.022858	0.0032005	22.17494	120.8926	31.77587	0.0033627	9.05E-05	-0.0024548	-98	3.5
30:03:35:32	647	-0.849	-0.00054984	-0.00028859	0.52839	0.0038452	0.0023823	0.00072718	0.0360196	0.0613688	-63.793	0.027313	-0.01828	-0.0026436	22.17494	120.8926	31.75975	0.0039825	-0.00022876	-0.0060463	-99	3.5
30:03:35:52	648	-0.8489	-0.00054384	-0.00031564	0.52856	0.0023785	0.00634	-0.0020752	0.0337846	0.0636439	-63.8159	-0.0026989	0.0015202	-0.004734	22.17494	120.8926	31.75521	0.0031891	-0.00047636	-0.0072479	-98	3.5
30:03:35:72	649	-0.84888	-0.00052465	-0.00029492	0.52858	0.0034313	0.0041084	-0.0012293	0.0331724	0.0604668	-63.8193	0.0040321	-0.006279	-0.0097504	22.17494	120.8926	31.75808	0.0031834	0.00034595	-0.0061836	-98	3.5
30:03:35:91	650	-0.84879	-0.0005335	-0.00027104	0.52874	0.0041313	0.0023651	-0.0012846	0.035468	0.0586858	-63.8401	0.01741	0.012985	-0.0025387	22.17494	120.8926	31.7575	0.0028381	0.00083303	-0.0047455	-98	3.5
30:03:36:11	651	-0.84877	-0.00055495	-0.00028661	0.52877	0.0038414	0.0040741	-0.0022373	0.0366089	0.0615016	-63.8443	0.029968	-0.014648	-0.0044937	22.17494	120.8926	31.74159	0.0029984	0.00029707	-0.0081177	-97	3.5
30:03:36:30	652	-0.84877	-0.00051546	-0.0003049	0.52876	0.0018024	0.0074806	-0.0037003	0.0316604	0.0608877	-63.8436	-0.019272	-0.0010481	4.86E-05	22.17494	120.8926	31.74111	0.0031738	0.0014658	-0.0063133	-98	3.25
30:03:36:50	653	-0.8486	-0.00053853	-0.00028466	0.52904	0.0027599	0.0059052	-0.0044365	0.0351106	0.0603281	-63.8813	0.0059814	-0.017303	-0.014275	22.17494	120.8926	31.74165	0.0023479	-0.00089931	-0.0052452	-98	3.25
30:03:36:70	654	-0.84864	-0.00053314	-0.00025409	0.52897	0.0039043	0.0035934	-0.0012188	0.0364447	0.0570254	-63.8712	0.019348	0.002121	-0.010582	22.17494	120.8926	31.74227	0.0039291	-0.00028014	-0.0071907	-98	3.75
30:03:36:89	655	-0.84867	-0.00053068	-0.00028284	0.52892	0.0016203	0.0047798	-0.00048208	0.0344659	0.0596707	-63.8654	0.0091934	-0.010773	-0.01799	22.17494	120.8926	31.74843	0.0053787	0.000916	-0.0075188	-98	3.5
30:03:37:09	656	-0.84868	-0.00052103	-0.0002677	0.52891	0.0041504	0.0023174	0.00018787	0.0344463	0.0576129	-63.863	0.0053635	-0.0094528	-0.0057106	22.17494	120.8926	31.73649	0.0047073	0.0011826	-0.010597	-98	3.5
30:03:37:28	657	-0.8485	-0.00053908	-0.0003387	0.5292	0.0023651	0.0070724	-0.0037441	0.0318752	0.0656232	-63.9031	0.0045586	-0.021347	-0.0086594	22.17494	120.8926	31.73981	0.0040321	0.0001899	-0.0069237	-99	3.75
30:03:37:48	658	-0.84857	-0.00051247	-0.00031012	0.52908	0.0027866	0.0032272	0.0017099	0.0310304	0.061225	-63.886	0.006649	0.011604	-0.011314	22.17494	120.8926	31.74499	0.0046272	0.0021687	-0.0023117	-98	3.75
30:03:37:67	659	-0.84848	-0.00052989	-0.00030695	0.52923	0.0026932	0.0067291	-0.0039177	0.0329054	0.0619794	-63.9067	0.0082626	-0.0092087	-0.010498	22.17494	120.8926	31.75084	0.0049591	0.0005641	-0.00022924	-98	3.75
30:03:37:87	660	-0.84845	-0.00052356	-0.00029611	0.52927	0.0021629	0.003891	0.00067949	0.0329441	0.0605429	-63.9122	0.016693	0.0059547	-0.008049	22.17494	120.8926	31.75742	0.0048523	0.0014305	0.0048409	-98	4.25
30:03:38:07	661	-0.84844	-0.0005119	-0.00031032	0.52929	0.0014429	0.0065994	-0.0021248	0.030947	0.061218	-63.9155	0.0028858	-0.002142	-0.0055885	22.17494	120.8926	31.749	0.0048027	0.001195	0.0027256	-99	3.25
30:03:38:27	662	-0.8484	-0.00051117	-0.00032753	0.52936	0.0031071	0.0031815	0.0013132	0.0298276	0.0628492	-63.9238	0.011879	0.01651	0.00049305	22.17494	120.8926	31.75553	0.0059509	0.0014162	0.0048256	-99	3.75
30:03:38:46	663	-0.8482	-0.00051142	-0.00031867	0.52967	0.0022831	0.0062561	-0.0032902	0.0303664	0.0620147	-63.9666	0.0049553	-0.0045242	0.0042648	22.17494	120.8926	31.76625	0.0051537	-0.00030971	0.0040016	-98	3
30:03:38:66	664	-0.84817	-0.00051114	-0.00035718	0.52972	0.0026989	0.0032158	0.0007205	0.0279976	0.0657424	-63.9733	-0.0057907	0.0168	-0.0016842	22.17494	120.8926	31.77382	0.005722	0.00055218	0.0025425	-99	3.25
30:03:38:85	665	-0.84818	-0.00049014	-0.00031113	0.52971	0.0033321	0.0047417	-0.0019932	0.0287536	0.0599917	-63.9714	0.0010004	0.00020313	-0.0037155	22.17494	120.8926	31.76515	0.0059967	0.00062656	0.00031638	-98	3.5
30:03:39:05	666	-0.84805	-0.00051314	-0.00034549	0.52992	0.0046272	0.0044594	-0.0030537	0.0288872	0.0647348	-64	0.01651	0.007	-0.0090027	22.17494	120.8926	31.77279	0.0069504	-0.00052357	-0.0025425	-99	0.25
30:03:39:25	667	-0.84812	-0.00047012	-0.00032952	0.5298	0.0029259	0.0061607	-0.0041313	0.0256849	0.0605666	-63.9844	-0.0052643	0.014481	0.0053978	22.17494	120.8926	31.77589	0.0077362	0.00061464	-0.0033684	-101	-2.25
30:03:39:44	668	-0.84796	-0.00050354	-0.00034229	0.53005	0.0024891	0.0030594	0.00031829	0.0281379	0.0638445	-64.0183	0.0031872	0.0054131	0.003479	22.17494	120.8926	31.78845	0.006485	0.00034094	0.0003674	-99	-4.75
30:03:39:64	669	-0.84787	-0.00051124	-0.00029341	0.5302	0.0028362	0.0055237	-0.0011358	0.0318445	0.0595685	-64.0381	0.01561	-0.0010061	-0.01545	22.17494	120.8926	31.78948	0.0072403	-0.00073576	-0.00059223	-101	0.5
30:03:39:83	670	-0.84783	-0.0005046	-0.00031371	0.53027	0.0040321	0.0033894	-0.0020695	0.0299616	0.0611394	-64.0472	-0.0090332	-0.0082855	-0.010101	22.17494	120.8926	31.78195	0.0073013	0.00010884	-0.0021591	-98	-1.25
30:03:40:03	671	-0.84779	-0.00048598	-0.00030654	0.53034	0.0023212	0.0032635	0.001214	0.0285838	0.0593143	-64.0565	-0.012016	0.0036068	-0.0041122	22.17494	120.8926	31.79385	0.0079575	3.71E-05	-0.00028777	-99	-2.5
30:03:40:23	672	-0.8477	-0.00048675	-0.00031358	0.53048	-0.0001986	0.0081711	-0.0039444	0.0282202	0.0600497	-64.076	0.00079727	0.012352	0.0026283	22.17494	120.8926	31.79793	0.0075378	-6.16E-05	0.00071335	-98	-3.5
30:03:40:42	673	-0.84773	-0.0004654	-0.00030333	0.53043	0.0017557	0.0057487	-0.0018196	0.0267734	0.0577543	-64.0685	-0.020416	-0.016891	-0.0032635	22.17494	120.8926	31.8062	0.0053978	0.0010557	0.0024509	-98	-1.75
30:03:40:62	674	-0.84772	-0.00046457	-0.0002921	0.53044	0.0037785	0.0051308	-0.002615	0.0273748	0.0566136	-64.0699	-0.014	-0.018311	-0.006752	22.17494	120.8926	31.79987	0.0052299	0.001214	0.00047779	-98	-1.75
30:03:40:82	675	-0.84763	-0.0004785	-0.0002945	0.53059	0.0053215	0.0028133	-0.0003159	0.0285714	0.0576982	-64.0903	-0.01973	0.011589	0.0035496	22.17494	120.8926	31.80749	0.0051765	0.00098038	0.00019133	-99	-1
30:03:41:01	676	-0.84755	-0.0004938	-0.00025845	0.53071	0.0051804	0.0030918	-0.0027847	0.0322412	0.0551323	-64.1075	-0.014648	-0.011932	-0.0037899	22.17494	120.8926	31.81378	0.0042839	0.00082064	0.0027657	-101	-0.75
30:03:41:21	677	-0.84749	-0.00048725	-0.00021943	0.5308	0.0064087	0.00059605	0.0001421	0.0339719	0.0509476	-64.1197	-0.0038414	-0.0021	-0.0038319	22.17494	120.8926	31.82453	0.0031853	-0.00047421	0.0056686	-99	-4.25
30:03:41:41	678	-0.8474	-0.00051362	-0.0002024	0.53096	0.006794	0.0028305	-0.0027657	0.0375603	0.0509036	-64.1401	0.029587	-0.018631	-0.024078	22.17494	120.8926	31.83277	0.0020962	-0.00037289	0.0058937	-98	-3.75
30:03:41:60	679	-0.84739	-0.00049661	-0.00025668	0.53096	0.0073547	0.0015116	-0.00017869	0.032606	0.0551407	-64.1412	-0.0090637	-0.016418	-0.0092316	22.17494	120.8926	31.82756	0.0025253	0.00041604	0.0041809	-99	-4
30:03:41:80	680	-0.8474	-0.00047393	-0.00022781	0.53095	0.0064392	0.0048981	-0.0066566	0.0321605	0.0509563	-64.1391	-0.0271	0.0023422	-0.0048523	22.17494	120.8926	31.83006	0.0038013	0.00091457	0.0016012	-97	-4.75
30:03:41:99	681	-0.84737	-0.00050059	-0.00017059	0.53101	0.0075912	0.00015426	-0.0016708	0.0382276	0.0470248	-64.1473	0.029922	-0.0030975	-0.011749	22.17494	120.8926	31.8358	0.0037308	0.0018234	0.0016937	-98	-2.75
30:03:42:19	682	-0.84734	-0.00051204	-0.00016734	0.53105	0.0069237	0.0042343	-0.0049744	0.0395352	0.0474078	-64.1522	0.042267	0.01062	-0.013161	22.17494	120.8926	31.84527	0.0018091	0.0023556	0.0041466	-96	-5.5
30:03:42:39	683	-0.84726	-0.00050891	-0.00020184	0.53118	0.0077705	-0.00022578	0.0003221	0.0371233	0.0505733	-64.1703	0.0059738	0.010109	0.00070477	22.17494	120.8926	31.85542	0.0015659	0.00064659	0.0048332	-95	-5.75
30:03:42:58	684	-0.84722	-0.00047988	-0.00023702	0.53123	0.0076981	0.0016346	-0.0020466	0.0321603	0.0522233	-64.1778	-0.017548	0.010826	0.0055771	22.17494	120.8926	31.84922	0.0017328	0.00073195	0.0030556	-96	-4.75
30:03:42:78	685	-0.84714	-0.00048801	-0.00022738	0.53136	0.0068436	0.0042419	-0.007515	0.0335284	0.0517882	-64.1952	0.01886	0.0076752	-0.0069122	22.17494	120.8926	31.8557	0.0034313	0.00037408	0.0013542	-95	-5.5
30:03:42:97	686	-0.84718	-0.00048174	-0.00021945	0.53131	0.0052567	0.0052414	-0.004509	0.0334061	0.0506341	-64.1881	0.023849	0.019302	-0.0059433	22.17494	120.8926	31.8588	0.0038033	0.0013924	0.00024676	-95	-5.5
30:03:43:17	687	-0.8471	-0.000489	-0.00027684	0.53144	0.0052338	0.0028095	-0.001647	0.0306077	0.0566521	-64.2055	0.022995	0.015137	-0.007	22.17494	120.8926	31.86081	0.003828	0.00053215	-0.0019236	-95	-5.75
30:03:43:37	688	-0.8471	-0.00048781	-0.0002187	0.53144	0.0066566	0.0022488	-0.003479	0.0340327	0.0509365	-64.2057	0.015732	-0.00078869	-0.011597	22.17494	120.8926	31.85508	0.003437	0.0004921	-0.0036964	-95	-5.5
30:03:43:56	689	-0.847	-0.00050329	-0.00024669	0.5316	0.0052948	0.002552	-0.0015249	0.033821	0.0546018	-64.2268	0.029388	0.014458	-0.0075188	22.17494	120.8926	31.85651	0.0041771	0.00096941	-0.0056534	-94	-5.75
30:03:43:76	690	-0.84695	-0.00047773	-0.0002366	0.53168	0.0051994	0.0017138	0.00021636	0.0319498	0.0520687	-64.2377	0.017532	-0.0024452	-0.01593	22.17494	120.8926	31.85699	0.0050278	0.00037909	-0.0043755	-95	-5.5
30:03:43:96	691	-0.84692	-0.00049339	-0.00025439	0.53172	0.004818	0.0050545	-0.0048065	0.0323834	0.0547506	-64.2436	0.018829	0.0077057	-0.005764	22.17494	120.8926	31.86011	0.0056877	0.00087881	-0.0048904	-94	-5.5
30:03:44:15	692	-0.84689	-0.00046379	-0.0002545	0.53177	0.0054245	0.0010509	0.00088358	0.0295009	0.0529598	-64.2507	0.011536	0.01976	-0.012421	22.17494	120.8926	31.85802	0.0051651	0.00095844	-0.0048523	-95	-6
30:03:44:35	693	-0.846124887	2.38E+38	0.001424319	1.70E+33	-2746	0.000500679	-0.006950378	-180	-0.000819263	6.83E-40	0.019257	-0.025223	-0.017609	22.17494	120.8926	31.848	0.005188	0.0013628	-0.0070496	-94	-6.75
30:03:44:74	695	-0.84677	-0.00045632	-0.00022213	0.53196	0.0071945	0.0035629	-0.0069962	0.0307377	0.0493704	-64.2753	0.017242	0.0084686	0.0057793	22.17494	120.8926	31.84837	0.0062866	0.00046372	-0.0059814	-95	-6
30:03:44:94	696	-0.84665	-0.00047655	-0.00017264	0.53215	0.006485	0.00066519	0.00027108	0.0357063	0.0458095	-64.3014	0.048462	-0.0053825	-0.014565	22.17494	120.8926	31.84792	0.0062828	-0.00087261	-0.0072937	-94	-6
30:03:45:13	697	-0.84665	-0.00046438	-0.00021069	0.53214	0.0075035	0.0029163	-0.0044518	0.0322055	0.0487587	-64.3007	0.021713	-0.0032825	-0.010338	22.17494	120.8926	31.85061	0.0063477	0.00021541	-0.007122	-94	-5.75
30:03:45:33	698	-0.84663	-0.00046268	-0.00022404	0.53218	0.0070267	0.0047531	-0.0073929	0.0312257	0.0499515	-64.3055	0.012047	0.00014555	-0.0028152	22.17494	120.8926	31.84114	0.0066986	0.0004878	-0.0094681	-94	-6.5
30:03:45:52	699	-0.84652	-0.00045756	-0.00020224	0.53235	0.0051079	0.0056763	-0.0061073	0.0320481	0.0475304	-64.3288	0.011475	0.018402	-0.0078011	22.17494	120.8926	31.84439	0.0061035	0.00015795	-0.0086365	-94	-6.25
30:03:45:72	700	-0.84646	-0.00048062	-0.00022732	0.53245	0.0044136	0.0041695	-0.0028591	0.0327493	0.0513741	-64.3426	0.025055	-0.0046082	-0.0059814	22.17494	120.8926	31.84601	0.0056076	0.00081491	-0.0057983	-94	-5.75
30:03:45:92	701	-0.84649	-0.00044223	-0.00019533	0.53241	0.0048218	0.0039597	-0.0046082	0.0309791	0.0459271	-64.3362	0.013763	-0.017334	-0.0097351	22.17494	120.8926	31.84498	0.0060463	0.001008	-0.0066566	-94	-6
30:03:46:11	702	-0.84645	-0.00045111	-0.0002186	0.53247	0.0069962	0.00085211	-0.00094461	0.030417	0.0487284	-64.3456	0.0017128	-3.62E-05	0.00061703	22.17494	120.8926	31.83318	0.0054855	0.0015678	-0.008934	-94	-6.25
30:03:46:31	703	-0.84643	-0.00043527	-0.00024331	0.5325	0.0063171	0.0024433	-0.0022469	0.027371	0.0501599	-64.3494	-0.016632	-0.0041313	-0.0084991	22.17494	120.8926	31.83962	0.0044632	0.0017681	-0.0060997	-94	-6.25
30:03:46:50	704	-0.84639	-0.00042573	-0.00024709	0.53256	0.0041962	0.0040779	-0.0012741	0.0262124	0.0499464	-64.3573	-0.00057697	-0.00054359	-0.0060692	22.17494	120.8926	31.83503	0.0046921	0.001173	-0.0075607	-94	-6
30:03:46:70	705	-0.84643	-0.00042885	-0.00020736	0.5325	0.0035839	0.0023499	0.0027599	0.0289422	0.0462813	-64.3489	-0.010277	0.012604	0.00092983	22.17494	120.8926	31.82848	0.0050278	0.0020657	-0.0074272	-97	-6
30:03:46:90	706	-0.8463	-0.00045732	-0.00025395	0.5327	0.0054016	0.0048065	-0.0052834	0.0288491	0.052544	-64.3767	0.00088596	-0.014313	-0.0050659	22.17494	120.8926	31.8329	0.0043526	0.0011015	-0.0054359	-97	-6.25
30:03:47:09	707	-0.84632	-0.0004693	-0.00022762	0.53267	0.0047302	0.004776	-0.001358	0.0316192	0.0507212	-64.3727	0.018127	0.0091629	-0.0022621	22.17494	120.8926	31.81969	0.0050087	0.00089931	-0.0086746	-98	-6.5
30:03:47:29	708	-0.84631	-0.00047105	-0.00024203	0.5327	0.0026073	0.0078964	-0.0044632	0.0309081	0.0522264	-64.3757	0.01371	0.029816	0.0030308	22.17494	120.8926	31.82548	0.0044937	0.002203	-0.0029068	-97	-6.5
30:03:47:48	709	-0.84629	-0.00046	-0.00023664	0.53272	0.0040131	0.0056267	-0.0027504	0.0301639	0.0510295	-64.3793	-0.0069923	-0.020889	-0.016174	22.17494	120.8926	31.82756	0.0044174	0.001893	-0.00062847	-95	-5.75
30:03:47:68	710	-0.84631	-0.00045895	-0.00021048	0.53269	0.0043335	0.006649	-0.005661	0.0316612	0.0484275	-64.3747	-0.0020561	0.018402	0.0073509	22.17494	120.8926	31.82953	0.0045471	0.0020199	0.0015011	-94	-6
30:03:47:88	711	-0.84625	-0.00050148	-0.00023607	0.53278	0.0041542	0.0040359	-0.0014515	0.0342173	0.0535088	-64.3869	0.030762	0.010468	0.0015478	22.17494	120.8926	31.83461	0.004734	0.0027332	0.0011168	-94	-7
30:03:48:07	712	-0.84624	-0.00050496	-0.0002699	0.5328	0.0018253	0.0082626	-0.0041428	0.0324883	0.0570031	-64.3893	0.0045319	-0.0064163	-0.0078278	22.17494	120.8926	31.83271	0.0057182	0.0026836	-3.10E-05	-94	-6.75
30:03:48:46	714	-0.84603	-0.00055809	-0.00021107	0.53314	0.0051231	0.0058937	-0.0056229	0.0412105	0.0545589	-64.4356	0.033539	0.014526	-0.012398	22.17494	120.8926	31.84543	0.0033283	0.0014868	0.00052166	-94	-7.25
30:03:48:66	715	-0.84597	-0.00056134	-0.00023653	0.53323	0.0031185	0.0055275	-0.0016556	0.0399642	0.0572288	-64.4477	0.031158	-0.0047989	-0.010025	22.17494	120.8926	31.84914	0.003664	0.00028801	-0.00036526	-94	-7.25
30:03:48:86	716	-0.84599	-0.00053667	-0.00026155	0.53319	0.0016069	0.0058746	0.0014019	0.0360465	0.0581453	-64.4429	0.0019283	0.0097275	0.0029564	22.17494	120.8926	31.84173	0.00383	0.00097466	-0.0025692	-94	-6.75
30:03:49:05	717	-0.84595	-0.00055296	-0.00019594	0.53326	0.0035706	0.0023537	4.55E-05	0.0416292	0.0527842	-64.4524	0.014778	-0.0015078	-0.0042191	22.17494	120.8926	31.84536	0.0032101	0.0011539	-0.0018539	-95	-6.75
30:03:49:25	718	-0.84588	-0.00056839	-0.00017113	0.53337	0.0052185	0.0017548	0.00039291	0.0446344	0.0513278	-64.4673	0.035431	0.0044937	-0.00079823	22.17494	120.8926	31.84902	0.0029507	0.00050306	-0.0019665	-96	-6.75
30:03:49:44	719	-0.84583	-0.00058369	-0.00022024	0.53345	0.0021286	0.0052605	0.00073147	0.0431109	0.0570268	-64.4777	0.0093536	0.021347	-0.0065651	22.17494	120.8926	31.85441	0.0033684	0.000108	-0.0012836	-97	-7.75
30:03:49:64	720	-0.84577	-0.00058375	-0.00022355	0.53355	0.0032005	0.0040207	-0.0015383	0.0429069	0.0573571	-64.4918	-0.0026779	-0.014961	-0.0050278	22.17494	120.8926	31.86236	0.0020199	-0.00019503	0.0014248	-95	-6.5
30:03:50:23	723	-0.84573	-0.00061036	-0.00020786	0.53361	0.0025101	0.0077362	-0.0054321	0.0464425	0.0574665	-64.4987	0.014191	-0.011322	-0.012383	22.17494	120.8926	31.86453	0.0030384	-0.00039816	-0.0015335	-95	-7
30:03:50:42	724	-0.84568	-0.00061942	-0.00019962	0.53369	0.0035553	0.0036469	-0.0011749	0.0478186	0.0572267	-64.5103	0.0112	-0.0031471	-0.010132	22.17494	120.8926	31.86947	0.0023479	-0.00060081	0.0026512	-95	-7
30:03:50:62	725	-0.84564	-0.00064781	-0.00020591	0.53375	0.004612	0.0061607	-0.0056114	0.0501807	0.0595758	-64.5185	0.023804	0.0073204	-0.0026741	22.17494	120.8926	31.8624	0.0022182	-0.00040865	0.0006485	-96	-7.25
30:03:50:82	726	-0.84557	-0.00062692	-0.0001438	0.53386	0.003149	0.002821	0.00091267	0.0519485	0.0522856	-64.5336	0.045715	-0.0032768	-0.0072784	22.17494	120.8926	31.8693	0.0017338	-0.00052309	0.0020924	-99	-6
30:03:51:01	727	-0.84552	-0.00063111	-0.00021491	0.53394	0.0015736	0.0082626	-0.0046921	0.0479982	0.0594374	-64.5447	-0.0090485	0.0085983	0.0063744	22.17494	120.8926	31.87274	0.0015087	-0.0015411	0.00055122	-99	-7.75
30:03:51:21	728	-0.84538	-0.00064696	-0.00015718	0.53417	0.0035229	0.0022583	-0.00084019	0.0530526	0.0548275	-64.5748	0.011436	0.013893	-0.0091248	22.17494	120.8926	31.8756	-0.00020015	-0.00097752	-0.0017862	-96	-9
30:03:51:41	729	-0.84537	-0.00064899	-0.00014444	0.53419	0.0024605	0.0059509	-0.0030804	0.0540275	0.0537187	-64.5774	0.026108	-0.0019646	-0.020309	22.17494	120.8926	31.87732	0.0010529	-0.00088453	-0.0021057	-97	-9.25
30:03:51:60	730	-0.84534	-0.0006525	-0.0002331	0.53422	0.0020504	0.0049706	-0.0016193	0.048937	0.0625243	-64.5825	3.04E-05	0.013901	-0.0027256	22.17494	120.8926	31.86981	0.0011406	-0.00090885	-0.0042343	-97	-9.5
30:03:51:80	731	-0.84533	-0.00064404	-0.00020317	0.53424	0.0032501	0.0074883	-0.0078506	0.0499485	0.0591081	-64.5847	-0.027374	0.0089874	-0.0015907	22.17494	120.8926	31.87195	4.71E-05	-0.00068235	-0.0026512	-94	-9.5
30:03:51:99	732	-0.84537	-0.00064461	-0.00018656	0.53419	0.0030556	0.0031624	0.00024068	0.0510245	0.0575304	-64.5775	0.013535	-0.012718	-0.0034103	22.17494	120.8926	31.87033	0.0010767	-0.0017805	-0.005043	-94	-10.5
30:03:52:19	733	-0.84534	-0.00063567	-0.00018959	0.53422	0.0014191	0.0057716	-0.0013142	0.0499707	0.0572792	-64.5823	0.0067787	0.0011892	-0.017334	22.17494	120.8926	31.87523	0.0017767	-0.0021496	-0.002573	-95	-7.75
30:03:52:39	734	-0.84525	-0.00064385	-0.0002448	0.53437	0.0024452	0.0048981	-0.0015001	0.0473725	0.0631362	-64.6023	-0.03537	-0.021759	-0.0060692	22.17494	120.8926	31.87891	0.00068665	-0.0017347	-5.46E-05	-98	-4.75
30:03:52:58	735	-0.84526	-0.00064788	-0.00019496	0.53435	0.0033455	0.0029526	-0.00096035	0.0508161	0.0585547	-64.5995	-0.023163	-0.0010252	-0.0020275	22.17494	120.8926	31.86528	0.00014138	-0.0016918	-0.0028305	-98	-5.5
30:03:52:78	736	-0.84519	-0.00067984	-0.00022531	0.53447	0.0024261	0.0061531	-0.0025215	0.0520438	0.0634584	-64.6163	-0.0051231	0.0059891	-0.004715	22.17494	120.8926	31.87078	0.0010014	-0.00051785	9.17E-05	-94	-10
30:03:52:97	737	-0.84522	-0.00066403	-0.00020164	0.53442	0.0022068	0.0063858	-0.0018101	0.0519664	0.0601954	-64.6091	-0.036926	-0.030731	-0.0057526	22.17494	120.8926	31.8753	0.00071812	-0.0016327	0.0013981	-96	-6.75
30:03:53:17	738	-0.84517	-0.0006603	-0.0001988	0.53449	0.0034428	0.005703	-0.0035667	0.0517738	0.0596952	-64.6186	-0.036987	-0.013123	-0.006958	22.17494	120.8926	31.87531	-0.00022697	-0.00084782	0.00015473	-97	-5
30:03:53:37	739	-0.84516	-0.00068004	-0.00017227	0.53451	0.0044289	0.0028706	-0.00010014	0.055309	0.0583372	-64.6217	-0.014252	-0.0041809	-0.0032368	22.17494	120.8926	31.86427	-0.00067472	-0.00023544	-0.0023975	-94	-10.25
30:03:53:56	740	-0.84527	-0.00070475	-0.0001955	0.53435	0.0037346	0.0054893	-0.0020199	0.0562916	0.0620885	-64.599	0.0067253	-0.014931	-0.0091019	22.17494	120.8926	31.87118	-6.14E-05	-0.0029392	-0.0030041	-93	-10.25
30:03:53:76	741	-0.84526	-0.00071184	-0.00020534	0.53435	0.0045509	0.0029984	0.0014868	0.0563754	0.0634765	-64.6	-0.0168	-0.0045357	-0.0032368	22.17494	120.8926	31.87183	-1.01E-06	-0.0035629	-0.0046425	-97	-7.5
30:03:53:95	742	-0.84522	-0.00073824	-0.00016388	0.53442	0.0057526	0.0024738	0.00087786	0.0614661	0.0610833	-64.6097	-0.0068436	-0.0067062	-0.0007391	22.17494	120.8926	31.87903	-0.0010843	-0.0024986	-0.00050354	-95	-6.5
30:03:54:15	743	-0.84519	-0.00077719	-0.00019692	0.53446	0.0064163	0.0016632	0.00065613	0.0632124	0.0666709	-64.6147	0.010498	-0.026672	-0.011497	22.17494	120.8926	31.88621	-0.00081491	-0.0034695	0.0010452	-96	-4.5
30:03:54:34	744	-0.84521	-0.0007666	-0.00018584	0.53444	0.0045128	0.0071259	-0.0053596	0.0628668	0.0649471	-64.6113	0.0067406	0.011017	0.00025082	22.17494	120.8926	31.87631	-0.00083923	-0.0038872	-0.00144	-96	-2.5
30:03:54:54	745	-0.84515	-0.00077995	-0.00018413	0.53453	0.0048027	0.0022221	0.0020409	0.0642578	0.0656066	-64.6235	0.0072861	-0.0061188	-0.010635	22.17494	120.8926	31.8769	-0.001296	-0.0051041	-0.0019493	-94	-4.5
30:03:54:74	746	-0.84515	-0.00076973	-0.0001506	0.53453	0.0055351	0.0057106	-0.0041466	0.065322	0.0617332	-64.6239	0.013077	0.00088644	-0.006218	22.17494	120.8926	31.87535	-0.0016346	-0.0060921	-0.0059052	-93	-5.75
30:03:54:93	747	-0.84507	-0.00077822	-0.00016788	0.53465	0.0042648	0.0027294	0.0010328	0.0650763	0.0639357	-64.6405	0.019547	0.0069733	-0.0012989	22.17494	120.8926	31.87032	-0.0014181	-0.0064125	-0.007	-94	-5.25
30:03:55:13	748	-0.84479	-0.00076118	-0.00015836	0.5351	0.0041084	0.0040054	-0.0014086	0.0639764	0.0620048	-64.7017	0.011284	0.016159	-0.0022831	22.17494	120.8926	31.87209	-0.0017433	-0.0044823	-0.0023251	-96	-2.75
30:03:55:33	749	-0.84474	-0.00077854	-0.00021686	0.53517	0.0032883	0.0048103	-0.0011663	0.0620637	0.0687374	-64.7111	0.015465	0.0028248	0.00049019	22.17494	120.8926	31.85856	-0.0019321	-0.0048065	-0.0050392	-95	-4
30:03:55:52	750	-0.84488	-0.00076113	-0.00019253	0.53495	0.0027027	0.0067329	-0.0047302	0.0618877	0.0652984	-64.6816	0.035034	0.019943	-0.0066719	22.17494	120.8926	31.85705	-0.00052023	-0.0041351	-0.0040359	-94	-5.75
30:03:55:72	751	-0.84471	-0.00077918	-0.00017247	0.53523	0.003355	0.0039406	-0.00081205	0.0648434	0.0644843	-64.7192	0.040955	0.022888	-0.0050774	22.17494	120.8926	31.8549	-0.00063086	-0.0028191	-0.0034885	-96	-3
30:03:55:91	752	-0.84467	-0.00078564	-0.00019655	0.53529	0.0030441	0.0050507	-0.0021267	0.0639872	0.0672149	-64.7272	0.034332	0.012215	-0.0054436	22.17494	120.8926	31.85697	9.58E-05	-0.0022278	0.00012082	-96	-1.5
30:03:56:11	753	-0.84467	-0.00078848	-0.00020089	0.53529	0.0028477	0.0057869	-0.0027466	0.0639964	0.0678098	-64.727	0.017456	0.020615	0.00045776	22.17494	120.8926	31.84746	-0.000458	-0.0022888	-0.0021744	-96	-1.75
30:03:56:31	754	-0.84469	-0.00078773	-0.00018746	0.53525	0.0022564	0.0035496	-0.00054073	0.0647502	0.0664602	-64.7218	0.028702	0.0078583	-0.0066185	22.17494	120.8926	31.84936	2.30E-05	-0.0030384	0.0021877	-96	-3.5
30:03:56:50	755	-0.84447	-0.00079786	-0.00020449	0.53561	0.002037	0.0048981	-0.0021362	0.064657	0.0687573	-64.77	0.015572	0.003891	-0.013687	22.17494	120.8926	31.84511	-0.00037313	-0.0018454	0.0018139	-97	-1.75
30:03:56:70	756	-0.84476	-0.0007854	-0.00019309	0.53515	0.0028114	0.0025635	0.00068521	0.0641876	0.0668553	-64.7083	0.01226	0.016617	-0.0082016	22.17494	120.8926	31.84212	0.0010653	-0.0031548	-0.00024438	-97	-1
30:03:56:89	757	-0.84459	-0.00079256	-0.0002327	0.53541	0.0025139	0.0070648	-0.0045815	0.0624295	0.0711478	-64.7429	-0.01432	0.0040092	-0.00074482	22.17494	120.8926	31.84308	0.00084114	-0.00087357	-8.86E-05	-93	-6.25
30:03:57:09	758	-0.84459	-0.00077916	-0.00022013	0.53541	0.0020599	0.0047188	-0.00084257	0.061904	0.0691086	-64.7432	-0.022491	-0.010109	-0.0068054	22.17494	120.8926	31.82937	0.00055599	-0.0016479	-0.0033665	-92	-7.5
30:03:57:29	759	-0.8446	-0.0007837	-0.00021133	0.5354	0.0024567	0.0077629	-0.0063362	0.0628841	0.068535	-64.7421	-0.0087051	-0.009285	-0.0016146	22.17494	120.8926	31.83472	0.00097084	-0.00072193	-0.0021915	-93	-8
30:03:57:48	760	-0.84458	-0.00077378	-0.0002308	0.53543	0.0029736	0.0025311	0.00039458	0.0607268	0.0698124	-64.7459	-0.013527	0.0040894	0.002985	22.17494	120.8926	31.83888	0.00065947	-0.0019855	3.16E-05	-96	-8.5
30:03:57:68	761	-0.84456	-0.00078503	-0.0002639	0.53547	0.0027981	0.0071106	-0.0042305	0.0597817	0.0737093	-64.751	-0.016174	-0.013657	-0.0044556	22.17494	120.8926	31.83698	0.00071001	-0.0021706	-0.0027752	-95	-9.5
30:03:57:87	762	-0.84456	-0.00078668	-0.00028135	0.53547	0.0033779	0.0032501	-8.80E-05	0.0588703	0.0754991	-64.7511	-0.01503	-0.014336	-0.0038395	22.17494	120.8926	31.83829	0.0007453	-0.0029449	0.00088882	-95	-9.5
30:03:58:07	763	-0.84454	-0.00078367	-0.0002557	0.53549	0.0035896	0.0067978	-0.0054131	0.0601503	0.0728344	-64.7546	-0.0095062	-0.019684	-0.0039749	22.17494	120.8926	31.83672	0.00053835	-0.0030632	0.00029492	-93	-10.5
30:03:58:27	764	-0.84444	-0.00077485	-0.00027317	0.53565	0.0037174	0.0057716	-0.0036144	0.0582115	0.0739938	-64.7755	-0.033173	-0.017593	-0.0099487	22.17494	120.8926	31.83547	0.00014853	-0.0039101	-0.00049877	-93	-10.25
30:03:58:46	765	-0.8446	-0.00078108	-0.00025627	0.53539	0.0032463	0.0067291	-0.0048866	0.0598742	0.0727233	-64.7407	-0.020004	-0.0045624	-0.0062561	22.17494	120.8926	31.83796	0.0013103	-0.0044479	0.0011845	-94	-10.75
30:03:58:66	766	-0.84452	-0.00080403	-0.00024847	0.53552	0.0043602	0.0038147	-0.0012541	0.0625624	0.0733853	-64.7579	-0.016647	-0.0036163	-0.0023937	22.17494	120.8926	31.83677	0.0010681	-0.0040474	-0.00076771	-95	-9.25
30:03:58:86	767	-0.84453	-0.00078787	-0.00024324	0.53551	0.003706	0.0053368	-0.0027142	0.0613203	0.0718873	-64.7572	-0.0085068	-0.018646	-0.0025101	22.17494	120.8926	31.8257	0.00094748	-0.0052109	-0.0039139	-94	-9
30:03:59:05	768	-0.84417	-0.00079734	-0.00027724	0.53608	0.0050545	0.0047989	-0.0029602	0.0600995	0.0757998	-64.8341	-0.025421	-0.010452	0.0018826	22.17494	120.8926	31.82985	-0.00035167	-0.0047951	-0.0036068	-93	-9.5
30:03:59:25	769	-0.84401	-0.00077298	-0.00024239	0.53632	0.0039978	0.0028667	0.00066042	0.0598633	0.0709489	-64.8673	-0.040192	-0.014343	0.00053215	22.17494	120.8926	31.83116	-0.00080967	-0.0042915	-0.0028687	-95	-8.5
30:03:59:44	770	-0.84388	-0.00083837	-0.00028493	0.53653	0.0038109	0.0061913	-0.0034351	0.0635543	0.0790975	-64.8956	-0.013779	-1.95E-05	0.0043259	22.17494	120.8926	31.83251	-0.00089264	-0.0044861	0.00083447	-95	-8.75
30:03:59:64	771	-0.84375	-0.0008294	-0.00021483	0.53674	0.0036545	0.0054131	-0.0025902	0.0669786	0.0717843	-64.924	-0.0020008	0.0037193	-0.0090942	22.17494	120.8926	31.82923	-0.001564	-0.003994	0.00059652	-98	-8
30:03:59:84	772	-0.8437	-0.00085837	-0.00026584	0.53682	0.0051537	0.0064278	-0.0055847	0.0666347	0.0785034	-64.9344	-0.0051155	-0.0028248	-0.003479	22.17494	120.8926	31.81795	-0.0027065	-0.004612	-0.0018845	-97	-8.75
30:04:00:03	773	-0.84372	-0.00083338	-0.00023081	0.53678	0.0057716	0.0028896	-0.00088596	0.0663766	0.0735775	-64.9297	-0.0064011	-0.0031815	-0.0072479	22.17494	120.8926	31.81905	-0.0025997	-0.005291	-0.00067711	-95	-11.25
30:04:00:23	774	-0.84375	-0.000838	-0.00025635	0.53674	0.0031872	0.0080643	-0.0059471	0.0652559	0.0763278	-64.9241	3.02E-05	0.0026493	0.0041199	22.17494	120.8926	31.81602	-0.0011597	-0.0047951	-0.0027542	-95	-9.25
30:04:00:42	775	-0.84342	-0.00084291	-0.00024541	0.53725	0.0039597	0.0028629	0.0018473	0.0663584	0.0756123	-64.9929	-0.016846	0.0063286	0.0048065	22.17494	120.8926	31.81524	-0.002306	-0.0041313	-0.0012703	-95	-8.75
30:04:00:62	776	-0.84349	-0.00087062	-0.00025295	0.53715	0.0042953	0.0060654	-0.0048141	0.0685808	0.0780379	-64.9799	0.0070877	0.00045276	-0.0038643	22.17494	120.8926	31.81498	-0.0021038	-0.0056305	-0.0016518	-94	-10.25
30:04:00:82	777	-0.84348	-0.00085064	-0.00024223	0.53717	0.0040359	0.0052528	-0.0035305	0.0673091	0.0757735	-64.9818	0.013977	0.0083237	-0.0027657	22.17494	120.8926	31.80703	-0.002533	-0.0057487	-0.0035076	-94	-10
30:04:01:01	778	-0.84354	-0.0008247	-0.00021741	0.53707	0.0028954	0.0075569	-0.0048409	0.0663368	0.0717703	-64.9692	0.00060701	-0.0013342	-0.0057259	22.17494	120.8926	31.80911	-0.0011539	-0.0053673	-0.0032024	-97	-8.5
30:04:01:21	779	-0.8434	-0.00083069	-0.00026373	0.53728	0.0024261	0.0048141	-0.0014343	0.0640464	0.0766326	-64.9978	0.003273	0.0020771	0.00039959	22.17494	120.8926	31.80977	-0.001153	-0.0049553	-0.0031624	-98	-7.5
30:04:01:41	780	-0.8434	-0.00084457	-0.00020427	0.53728	0.0035305	0.0065155	-0.005043	0.0690487	0.0717398	-64.9975	0.018295288	0.011772156	44128	2.89E-28	120.8926	31.80688	-0.0016279	-0.0049171	-0.0034065	-97	-9.25
30:04:01:60	781	-0.8434	-0.00083555	-0.00019528	0.53728	0.0025749	0.005043	-0.0012808	0.0687303	0.0703161	-64.9974	0.018845	0.00023758	-0.010719	22.17494	120.8926	31.79405	-0.0017633	-0.0058784	-0.0065308	-95	-7.75
30:04:01:80	782	-0.84321	-0.00083218	-0.00018648	0.53758	0.0031929	0.0060539	-0.0029221	0.0689222	0.0692826	-65.0377	0.008522	-0.0097351	-0.0036373	22.17494	120.8926	31.78654	-0.002718	-0.0049934	-0.0057373	-97	-7.5
30:04:02:00	783	-0.8431	-0.00083882	-0.00020698	0.53775	0.0038567	0.0031948	-0.001606	0.0682855	0.0716871	-65.0618	-0.012466	0.0035362	-0.0031853	22.17494	120.8926	31.7834	-0.0034084	-0.0042877	-0.0050659	-94	-8
30:04:02:19	784	-0.8432	-0.00084285	-0.00016253	0.5376	0.0028152	0.0064888	-0.0056381	0.0714267	0.0676277	-65.0404	0.0061378	-0.0052338	-0.0057259	22.17494	120.8926	31.78338	-0.0016451	-0.0041618	-0.0066109	-94	-8
30:04:02:39	785	-0.84319	-0.00086705	-0.00018662	0.53761	0.0016422	0.005455	-0.0018702	0.0722793	0.0714471	-65.0425	0.017944	-0.00069284	-0.0065193	22.17494	120.8926	31.78448	-0.0011759	-0.0040131	-0.007019	-94	-8.25
30:04:02:58	786	-0.84319	-0.0008649	-0.00017623	0.53762	0.0029697	0.0061798	-0.0042191	0.0727123	0.0703113	-65.0432	0.0037518	0.0023079	-0.0060692	22.17494	120.8926	31.77518	-0.0020409	-0.0042381	-0.0090561	-93	-8.75
30:04:02:78	787	-0.84323	-0.00084943	-0.00017127	0.53756	0.0034695	0.0074692	-0.0051765	0.0715278	0.0688733	-65.0348	-0.011703	-0.0056801	-0.0082245	22.17494	120.8926	31.77705	-0.0020447	-0.0042572	-0.0089874	-93	-7.25
30:04:02:98	788	-0.84318	-0.0008533	-0.00017939	0.53763	0.003624	0.0029926	-0.0018291	0.0713953	0.0699021	-65.0444	-0.0065613	-0.001502	-0.012459	22.17494	120.8926	31.77693	-0.0019302	-0.0042686	-0.010498	-93	-9.25
30:04:03:17	789	-0.84306	-0.00084683	-0.0002194	0.53782	0.0026493	0.0051003	-0.002079	0.0682884	0.0733855	-65.0713	-0.013992	0.0030098	-0.0049057	22.17494	120.8926	31.77098	-0.0021095	-0.0042686	-0.010727	-93	-9
30:04:03:37	790	-0.84306	-0.00085309	-0.00020324	0.53783	0.0023136	0.0052452	-0.0012846	0.0698887	0.0722112	-65.0716	-0.0056152	-0.01049	0.0011511	22.17494	120.8926	31.76151	-0.0023384	-0.0049896	-0.012924	-93	-9.5
30:04:03:57	791	-0.84305	-0.00087491	-0.00019947	0.53783	0.0038853	0.0067253	-0.0056686	0.0722289	0.0731923	-65.0721	-0.012108	-0.0057831	-0.0098648	22.17494	120.8926	31.76208	-0.0023804	-0.0036793	-0.010521	-93	-9.5
30:04:03:76	792	-0.84297	-0.00086916	-0.00019194	0.53796	0.0042229	0.0019379	0.00025392	0.0721263	0.0721207	-65.0893	-0.021301	0.0068741	0.00042152	22.17494	120.8926	31.76478	-0.0027657	-0.0023708	-0.0061378	-93	-9.75
30:04:03:96	793	-0.84272	-0.00085496	-0.00017583	0.53836	0.0026398	0.0077477	-0.0054359	0.0717145	0.0697232	-65.1436	-0.027634	-0.00063086	-0.0091705	22.17494	120.8926	31.76703	-0.0040588	-0.0017481	-0.0034142	-93	-8.5
30:04:04:15	794	-0.84272	-0.00085453	-0.00017194	0.53836	0.0037136	0.0030727	0.00068808	0.0719134	0.0693215	-65.1436	-0.022751	0.00028801	-0.0038376	22.17494	120.8926	31.76916	-0.003664	-0.00073338	-0.0033855	-94	-9.5
