UTC	Pack_count	q0	q1	q2	q3	RollRate	PitchRate	YawRate	Roll	Pitch	Yaw	FreeAccX	FreeAccY	FreeAccZ	Lat	Long	Height	VelX	VelY	VelZ	LoRaRSSI	LoRaSNR
20:46:08:22	0	0.99994	-0.0050739	-0.0039406	-0.0087681	-0.022675	0.059692	-0.042633	-0.57746	-0.45664	-1.0025	1.0098	0.34546	2.5234	24.80709	121.0243	45.23232	4.1875	-5.42188	45.2323	-55	6.25
20:46:08:53	0	0.99969	-0.018864	0.0047676	-0.015693	-0.12231	-0.017136	0.011009	-2.1701	0.51224	-1.8084	0.65039	-1.9521	-0.71191	24.80708	121.0243	45.34966	4.42969	-5.87891	45.3497	-58	5.75
20:46:08:84	0	0.99965	-0.018295	0.01395	-0.012973	0.11755	0.13928	-0.026947	-2.1177	1.571	-1.5161	0.23743	2.6074	-0.271	24.80707	121.0243	45.46213	4.75781	-6.19922	45.4621	-61	6.5
20:46:09:16	0	0.99872	-0.042316	0.025392	-0.011307	0.053619	0.16284	0.026886	-4.8877	2.8524	-1.419	0.4873	-6.793	3.6953	24.80706	121.0244	45.57481	5.09375	-6.59766	45.5748	-64	5.5
20:46:09:47	0	0.99857	-0.04153	0.033499	0.0020803	-0.63379	-0.23462	0.1322	-4.7604	3.846	0.078796	1.165	-4.6289	3.2871	24.80704	121.0244	45.69562	5.3125	-6.72656	45.6956	-60	5.75
20:46:09:78	0	0.99908	-0.028127	0.02859	0.015014	0.29395	0.041412	0.03363	-3.178	3.3234	1.6298	1.2607	0.066895	-0.2124	24.80703	121.0244	45.86143	5.82422	-7.09766	45.8614	-60	6.25
20:46:10:09	0	0.99904	-0.028292	0.021194	0.025958	0.1449	-0.06015	0.099609	-3.1805	2.5113	2.9071	0.59766	0.083557	0.49634	24.80701	121.0244	45.98349	6.07031	-7.26172	45.9835	-60	6.25
20:46:10:40	0	0.99933	-0.0040268	-0.010103	0.035013	-0.16052	-0.22241	-0.035828	-0.50177	-1.1408	4.0182	-0.74023	-1.4307	0.66504	24.807	121.0244	46.11415	6.32813	-7.44141	46.1142	-65	5.75
20:46:10:71	0	0.99971	-0.0013873	-0.0094645	0.022111	0.094421	0.17175	0.014633	-0.18294	-1.0808	2.5357	-1.4795	-2.5664	0.02597	24.80698	121.0245	46.21966	6.49219	-7.83594	46.2197	-67	5.5
20:46:11:02	0	0.99979	-0.0016219	-0.013236	0.015369	-0.13733	0.077148	-0.09436	-0.2092	-1.5138	1.7642	0.45142	-3.1914	-1.7422	24.80696	121.0245	46.30668	6.62109	-8.07813	46.3067	-69	4.25
20:46:11:33	0	0.99993	0.0016789	-0.0055053	0.010303	-0.08905	0.1012	0.00052214	0.18589	-0.63281	1.1796	-0.44922	0.30762	0.53906	24.80695	121.0245	46.42834	6.70703	-8.42188	46.4283	-66	5.75
20:46:11:64	0	0.99992	-0.0082187	-0.0084233	0.0046816	0.34082	0.025818	-0.040588	-0.94642	-0.9608	0.54445	-0.25	-2.8184	2.6055	24.80693	121.0246	46.54057	6.82813	-8.77344	46.5406	-64	5.5
20:46:11:96	0	0.99986	-0.016712	-0.00068587	-0.00048315	-0.16943	0.056946	-0.034363	-1.9151	-0.079509	-0.054044	3.7383	-1.6719	-1.2109	24.80691	121.0246	46.62192	6.99609	-8.92188	46.6219	-70	4.25
20:46:12:26	0	0.99989	-0.012017	0.0075999	0.0038007	-0.20264	0.2666	0.074341	-1.3739	0.87605	0.42507	1.7588	1.2637	1.9121	24.80689	121.0246	46.74828	7.16797	-9.17969	46.7483	-66	5.5
20:46:12:58	0	0.99994	-0.0087422	0.0027115	0.0059801	0.092285	0.18665	0.0046921	-0.99993	0.31668	0.68254	1.623	0.89453	0.72998	24.80688	121.0246	46.92831	7.32031	-9.32031	46.9283	-70	3.5
20:46:12:89	0	0.99993	-0.011118	0.0038577	0.0032391	-0.92432	-0.44971	0.0021248	-1.2727	0.44615	0.36624	1.1943	-1.2979	2.5273	24.80685	121.0247	47.11927	7.35547	-9.38281	47.1193	-71	3.75
20:46:13:20	0	0.99991	-0.0033052	0.012971	0.0018723	0.48926	0.37183	-0.034821	-0.37606	1.4871	0.20969	0.77393	3.5293	-1.7686	24.80684	121.0247	47.32845	7.67969	-9.6875	47.3284	-76	-1.75
20:46:13:51	0	0.9994	-0.035298	0.0059818	0.00779	-0.4939	0.18335	0.068542	-4.0401	0.71647	0.86791	2.9551	-3.793	1.0996	24.80681	121.0247	47.54499	7.82813	-9.83594	47.545	-74	0.75
20:46:13:82	0	0.9999	-0.01086	0.003942	0.0076225	-0.04541	0.25146	0.010551	-1.241	0.46117	0.86854	1.3164	3.4297	-0.73486	24.80679	121.0248	47.72834	8.07813	-10.1172	47.7283	-77	-5.25
20:46:14:13	0	0.99978	-0.018613	0.0074366	0.0054744	-0.065979	0.20093	0.0013952	-2.1285	0.86369	0.6114	0.21423	0.32935	-1.2813	24.80677	121.0248	47.90764	8.21094	-10.3359	47.9076	-77	-4.75
20:46:14:44	0	0.99984	-0.013449	0.0084326	0.0083198	-0.26733	0.11639	0.039154	-1.5333	0.97901	0.94041	-0.84717	-1.4453	-0.42358	24.80675	121.0248	48.06963	8.29688	-10.5234	48.0696	-74	0
20:46:14:75	0	0.99989	-0.010571	0.0080136	0.0066168	0.17407	0.23572	0.0048981	-1.2054	0.92625	0.74855	-1.4375	-2.7207	0.72754	24.80673	121.0249	48.1921	8.48438	-10.8047	48.1921	-76	-1.75
20:46:15:07	0	0.99977	-0.018623	0.0080549	0.0073381	-0.28125	-0.25171	0.026428	-2.1276	0.93851	0.82363	2.7598	1.6006	0.1311	24.80671	121.0249	48.34662	8.60156	-10.9531	48.3466	-75	-1.5
20:46:15:37	0	0.99987	-0.012236	0.0052479	0.0087915	-0.44238	-0.26782	-0.020966	-1.3969	0.61363	1	1.8652	0.049194	-0.34033	24.80668	121.0249	48.47237	8.82813	-11.1328	48.4724	-73	1.75
20:46:15:69	0	0.99978	-0.012712	0.013034	0.010819	-0.02124	0.15271	0.039917	-1.4408	1.5092	1.221	0.085083	-0.19885	0.1416	24.80666	121.025	48.61943	9.07813	-11.375	48.6194	-75	-0.5
20:46:16:00	0	0.99967	-0.017225	0.013124	0.013543	-0.052155	-0.22485	-0.012398	-1.9539	1.5303	1.5262	0.090576	-1.0752	0.68604	24.80663	121.025	48.77726	9.21094	-11.5391	48.7773	-75	-0.25
20:46:16:31	0	0.99967	-0.014181	0.013921	0.01635	-0.13721	-0.13147	-0.0054703	-1.5993	1.6215	1.8513	-0.001771	0.0085144	-0.14441	24.80661	121.025	48.92927	9.41406	-11.6328	48.9293	-74	0.25
20:46:16:62	0	0.99925	-0.0324	0.010574	0.018405	0.24939	0.34229	-0.010498	-3.6912	1.2792	2.0692	2.9922	-2.8633	-1.7197	24.80659	121.0251	49.11889	9.78906	-11.8984	49.1189	-78	-9
20:46:16:93	0	0.99951	-0.01888	0.010971	0.022598	-1.3213	-0.41455	0.02742	-2.135	1.3056	2.566	2.9551	2.9063	0.88525	24.80656	121.0251	49.25356	9.8125	-11.7422	49.2536	-76	-5.5
20:46:17:24	0	0.99873	-0.038741	0.019673	0.025684	0.85938	0.64258	0.35205	-4.3838	2.3662	2.8557	1.458	-5.1484	1.4678	24.80654	121.0252	49.38422	10.1719	-12.2578	49.3842	-76	-3.5
20:46:17:55	0	0.99901	-0.020485	0.027295	0.028647	-0.5708	-0.18127	0.017654	-2.2596	3.1936	3.2221	-0.98389	1.5762	-3.4219	24.80651	121.0252	49.55877	10.3125	-12.1016	49.5588	-77	-5.25
20:46:17:86	0	0.99885	-0.027089	0.016991	0.035758	0.35474	0.15479	0.030319	-3.0343	2.0562	4.0461	1.0674	-2.4453	-0.1272	24.80649	121.0252	49.75621	10.6563	-12.3984	49.7562	-76	-3.25
20:30:219:17	0	0.99906	-0.01877	0.0093006	0.037835	-0.34277	-0.14539	0.0066452	-2.1094	1.1462	4.3164	1.1191	0.31958	-0.38574	24.80646	121.0253	49.92241	10.8438	-12.4219	49.9224	-76	-2
20:46:18:49	0	0.99911	-0.011667	0.0094268	0.03941	0.10638	-0.029449	0.014282	-1.2935	1.132	4.5049	-0.48511	-0.38794	1.0039	24.80644	121.0253	50.10637	11.0234	-12.6406	50.1064	-75	0.25
20:46:18:80	0	0.99906	-0.014324	0.0033973	0.040687	0.39429	0.18079	-0.023636	-1.6243	0.45572	4.6577	1.1758	-2.4941	-0.80029	24.80641	121.0254	50.28556	11.2344	-12.8594	50.2856	-76	-3
20:46:19:11	0	0.99912	-0.01267	0.0044053	0.039755	-0.34497	-1.3428	-0.024994	-1.4307	0.56209	4.5501	0.554199219	-0.244995117	-15192	-1764941.25	484.0938416	50.45751572	11.3438	-12.9219	50.4575	-78	-6.5
20:46:19:42	0	0.99897	-0.016608	0.019687	0.037252	0.38745	0.20752	-0.0071526	-1.819	2.3252	4.2342	-0.69678	0.5293	-0.1554	24.80636	121.0255	50.65933	11.5469	-13.1719	50.6593	-76	-1.25
20:46:20:04	0	0.99757	-0.03815	3.51E-17	4.45E-09	0.37695	-0.36768	0.046204	-4.3801	1.95E-08	5.10E-07	1.126	3.748	2.4121	24.8063	121.0256	51.0914	11.875	-13.2266	51.0914	-77	-8
20:46:20:66	0	0.99713	-0.034225	0.023608	0.063331	-0.69775	-0.051483	0.094055	-3.747	2.9472	7.1719	3.9668	2.1348	0.6499	24.80625	121.0256	51.4355	12.4063	-13.1406	51.4355	-76	-4.25
20:46:21:28	0	0.99706	-0.0067554	0.0018744	0.076301	0.25366	0.0029449	0.031036	-0.75548	0.27323	8.7504	0.49805	-2.0801	3.2832	24.8062	121.0257	51.80493	12.7188	-13.2266	51.8049	-77	-7.25
20:46:21:60	0	0.99705	0.0025264	-0.018618	0.074423	-0.020081	0.080566	-0.017929	0.12996	-2.1492	8.5352	0.21448	-3.0957	0.80273	24.80618	121.0258	51.99546	12.7891	-13.3203	51.9955	-76	-3.5
20:46:21:91	0	0.99717	0.018137	-0.023433	0.069104	-0.17627	0.088684	-0.02626	1.8895	-2.8224	7.882	-0.0050049	0.62012	-1.1514	24.80614853	9.60E+30	52.14169312	12.7344	-13.4453	52.1417	-78	-8
20:46:22:22	0	0.99751	0.018359	-0.024249	0.063584	-0.2002	-0.064209	-0.044861	1.9247	-2.9069	7.2456	0.42505	1.6572	0.80908	24.80612	121.0259	52.16877	12.5547	-13.5156	52.1688	-77	-7.5
20:46:22:53	0	0.99807	0.014279	-0.014386	0.058671	0.54785	0.32666	-0.04007	1.5373	-1.7416	6.7051	-2.3066	-2.5742	-2.2656	24.8061	121.0259	52.17279	12.4766	-13.75	52.1728	-77	-7.25
20:46:22:84	0	0.99847	0.0089439	-0.011248	0.053411	-0.28491	-0.16943	-0.084534	0.95478	-1.3418	6.1128	-0.46387	3.1719	0.34131	24.80607	121.026	52.16806	12.2266	-13.6484	52.1681	-77	-6
20:46:23:46	0	0.99853	-0.012662	-0.0056073	0.05232	0.28174	-0.00020063	-0.048248	-1.4827	-0.5657	6.0061	-1.0498	-1.3271	-2.9883	-2.91E+25	-7.37E-28	5.91E-28	0.014839172	3434	5.91E-28	-77	-12
20:46:23:77	0	0.99864	0.0011009	0.013708	0.050386	0.25	0.12952	0.002861	0.2052	1.5625	5.7796	-3.0332	0.29712	0.76172	24.80599	121.0261	7.30E-28	11.7969	-13.8906	7.30E-28	-77	-11.75
20:46:24:08	0	0.99852	-0.0039517	0.011244	0.053006	0.0019131	-0.1969	0.032104	-0.38397	1.3107	6.073	-1.2412	1.1719	-0.20728	28.53935	121.0262	52.26273	11.6172	-13.4922	52.2627	-77	-10.5
20:46:24:40	0	0.99849	-0.0038582	0.0060503	0.05441	0.52441	0.043945	-0.039398	-0.40376	0.71634	6.2356	0.31299	-1.3496	-1.4805	24.80593	121.0262	52.30119	11.7031	-13.3906	52.3012	-77	-5.5
20:46:24:71	0	0.99845	-0.0017983	0.0069594	0.055136	-0.11926	-0.047668	0.015381	-0.1618	0.80765	6.3203	-0.51611	0.39771	0.48975	24.80591	121.0263	52.30862	11.5	-13.2031	52.3086	-78	-8.5
20:46:25:33	0	0.9985	-0.0026823	-0.0098791	-8.87E-17	-0.41626	0.032715	-0.018829	-0.30786	-1.1337	0.0030459	2.6875	-3.5059	1.6572	24.8058548	125.0108032	9.96E+30	11.2890625	962.5	9.96E+30	-77	-10.25
20:46:25:64	0	0.99844	0.020235	0.0050266	0.051715	0.26489	0.066406	-0.022797	2.3457	0.4552	5.9393	-1.6211	1.6699	3.832	24.80583	-2.29E+21	52.38165665	11.1406	-13.0391	52.3817	-77	-8.25
114:78:122:57	0	1.665024638	-9.68E-10	0.004261352	-8.48E+34	0.094055	0.21643	0.00085115	-5.76E-36	-1.31E-42	-180	-0.32202	-1.5283	1.1689	24.80576	121.0265	52.45953	21.375	3.16211	52.4595	-77	-11.5
20:46:29:99	0	0.9984	-0.0064282	-0.0037305	0.056127	0.12817	-0.32007	-0.024658	-0.75947	-0.38545	6.4378	0.54102	-2.125	1.001	24.8055	121.027	52.12227	9.96094	-11.8672	52.1223	-77	-7.5
20:46:30:92	0	0.99855	-0.019739	0.0016603	0.050139	0.729	0.56934	0.02179	-2.2497	0.30339	5.7431	1.0742	-4.8008	0.45654	24.80543	121.0271	51.88805	10.0391	-11.9609	51.888	-78	-7.25
20:49:27:22	0	0.03270907	-0.01038312	4.47E+34	-0.003783079	405	-40384	20880	-180	8.38E-35	-180	0.00141811	-20.3281	1.68262	1.33E-11	52.50688934	-1449258	-7.0859375	8.8515625	-1449258	-77	-9.5
17:49:27:196	49290	0.068219014	0.008587869	-2.05593E+13	-1.13E+33	0.02211	-0.21155	-0.024811	2.08E-18	8.70E-34	-180	-2.48047	11.2344	2.50195	3.20861E+13	2.0676E+11	-2.49E-15	-16128	-0.000327349	-2.49E-15	-77	-11
20:49:28:46	0	0.044847	-0.0062762	0.0088376	0.99894	0.4209	-0.25732	-0.034241	0.979513	0.7638724	174.8654	-1.0361	1.0547	-0.12262	24.8378	2.41E-32	34.4103	-6.89063	8.82031	34.4103	-77	-9.25
20:49:28:77	0	0.046445	0.00037069	0.011656	0.99885	-0.57959	-0.65234	-0.080017	1.336233	0.01960634	174.6758	-0.86572	0.55176	2.1055	16.4311142	-4.68074E+13	-3.08E-30	-2.4023	0.049469	-3.08E-30	-77	-11.5
20:49:29:08	0	0.053055093	0.008698283	1.52E+26	0.998471379	-0.048309	-0.13391	-0.080078	180	3.99E-26	180	-1.1074	-2.1797	1.208	24.80661	121.0252	46.51062	-6.80469	8.78125	46.5106	-77	-10
20:49:29:71	0	0.062243	0.002035	-0.00094791	0.99806	-0.10181	0.0050087	-0.010666	-0.09389835	-0.239498	172.863	-2.28516	50.75	-8.30E-05	-2.78E+16	123929.7969	46.37273026	-6.6875	8.91406	46.3727	-77	-6.5
20:49:30:64	0	0.065759	-0.010669	0.0031009	0.99777	-0.38818	-0.2124	0.011368	0.2742084	1.243365	172.4617	-0.02948	-1.623	-1.3721	24.8067	121.0251	46.07132	-6.67969	9.00781	46.0713	-77	-10.25
20:49:31:89	0	0.069903	-0.026281	0.020139	0.997	1.8789	0.86133	-0.014626	2.094003	3.165491	172.0366	4.0703	-3.6836	-4.8359	24.80678	121.025	45.80543	-6.84766	9.53125	45.8054	-77	-6.75
20:49:32:19	0	0.070391	-0.02258	-0.01821	0.9971	-0.71338	0.2937	0.10754	-2.265367	2.433779	171.8756	1.8857	3.0117	4.5664	24.8068	121.025	45.73896	-6.875	9.39844	45.739	-77	-6
71:103:118:51	0	0.069798	-0.039839	0.0051811	0.99675	1.1836	1.0264	0.096436	0.2740224	4.596795	171.9998	0.001194954	-19440	-4.63671875	24.80682	121.0249	45.588	-7.01563	9.70313	45.588	-76	-2.25
20:49:32:82	0	0.065421	-0.019984	-0.012123	0.99758	-0.59229	0.047577	0.02565	-1.537011	2.194088	172.4665	0.032135	-2.5098	-1.627	24.80684	121.0249	45.53488	-7.03516	9.45313	45.5349	-75	-0.25
20:49:33:157	47385	4.69753E+14	-0.015119237	-0.002282996	0.997809887	-0.071045	-0.075928	0.029755	-3.69E-15	-5.57E-16	2.43E-13	-0.58838	0.89209	0.045624	8.20E-30	7.94E+24	95.06135559	-3.74023	19.1406	95.0614	-77	-12
20:49:33:44	0	0.065273	-0.0093586	-0.0053472	0.99781	-0.14783	0.059906	0.0019321	-0.6815262	1.030126	172.5084	-2.002	1.5293	1.5439	24.80688	121.0248	45.54253	-7.18359	9.63281	45.5425	-76	-3.75
20:49:34:06	0	0.064902	-0.011759	0.002474	0.99782	0.13635	0.24976	0.042328	0.1954804	1.363054	172.5593	-0.15845	-1.0293	0.19861	24.80692	121.0248	45.49725	-7.02734	9.375	45.4972	-72	2.25
20:49:34:37	0	0.066493	-0.015103	0.0075718	0.99764	0.2959	0.12054	0.010132	0.7509279	1.784547	172.3854	2.7969	1.1094	1.0977	24.80693	121.0248	45.45834	-6.86328	9.22656	45.4583	-77	-5.75
20:49:34:68	0	0.0686	-0.0052064	0.0054512	0.99762	-0.11462	0.034607	-0.00056505	0.5822958	0.6380538	172.1358	0.26123	0.92773	0.16528	24.80695	121.0247	45.40047	-6.71875	8.98438	45.4005	-69	4.5
20:49:34:99	0	0.071936	-0.01004	0.018079	0.99719	-0.053375	-0.10046	-0.012787	1.984062	1.29645	171.7703	3.3027	-2.457	0.7583	24.80697	121.0247	45.31366	-6.46484	8.84375	45.3137	-77	-7.5
20:49:35:30	0	0.079173	-0.0011839	0.0076085	0.99683	0.13477	-0.082764	-0.081848	0.858399	0.204265	170.9192	1.6934	0.76367	-0.86719	24.80699	121.0247	45.27137	-6.32422	8.60156	45.2714	-76	-1.75
20:49:35:61	0	0.085352	-0.018524	0.0084563	0.99614	0.37842	0.87939	0.065491	0.7847074	2.197719	170.2205	3.6699	-1.3359	2.1699	24.80701	121.0247	45.23328	-6.19141	8.36719	45.2333	-71	3.25
20:49:35:92	0	0.08342	-0.015436	-0.012785	0.99631	-0.67871	0.23059	0.032257	-1.608033	1.640288	170.4047	-0.97852	2.5176	0.9248	24.80703	121.0246	45.09637	-6.05469	8.13281	45.0964	-69	4.5
20:49:36:24	0	0.087479	-0.012115	0.0063136	0.99607	-0.28345	0.24475	0.0046539	0.5994009	1.446282	169.9694	2.4863	1.1484	0.71826	24.80704	121.0246	45.04288	-5.85938	7.88672	45.0429	-68	4.5
20:49:36:55	0	0.094942	-0.011522	0.0068887	0.99539	0.36841	-0.039368	-0.035217	0.6605976	1.389352	169.1111	1.0479	-0.66992	-0.18555	24.80706	121.0246	44.90088	-5.65234	7.75391	44.9009	-67	5.5
20:49:36:86	0	0.096313	-0.0076794	0.0036597	0.99531	-0.15259	-0.21069	-0.041534	0.3326951	0.9163041	168.9485	-0.60693	-1.2549	-0.90625	24.80708	121.0246	44.80726	-5.48828	7.43359	44.8073	-73	-0.25
20:49:37:17	0	0.10165	-0.01066	0.0099931	0.99471	-0.1488	-0.23413	-0.037109	1.015223	1.331616	168.3417	0.46558	-2.9316	-1.6992	24.80709	121.0245	44.72958	-5.30078	7.18359	44.7296	-72	1.75
20:49:37:48	0	0.10187	-0.0090045	0.0065678	0.99474	0.1181	-0.24304	-0.0064278	0.6436738	1.103149	168.3115	-0.3396	-1.0938	1.3174	24.80711	121.0245	44.67268	-5.11719	7.03516	44.6727	-69	4.25
20:49:37:79	0	0.1076	-0.0076154	0.0038103	0.99416	0.27466	-0.1571	-0.018082	0.3402155	0.9145831	167.6478	-0.76514	-1.1953	-0.08075	24.80712	121.0245	44.6174	-4.99219	6.875	44.6174	-68	4.25
20:49:38:10	0	0.11445	-0.012607	-0.0024303	0.99335	0.022995	-0.061127	-0.020309	-0.4421177	1.403311	166.85	0.92969	-0.91895	-0.48926	24.80714	121.0245	44.58109	-4.89063	6.62109	44.5811	-66	5
20:49:38:41	0	0.11479	-0.013552	0.0032484	0.99329	-0.2854	0.021317	0.0057602	0.1915515	1.585444	166.8182	2.4023	0.92334	0.1748	24.80715	121.0244	44.559	-4.75391	6.40625	44.559	-69	3.5
20:49:38:72	0	0.11792	-0.01303	0.011806	0.99287	0.30444	0.064209	-0.0045128	1.167687	1.642219	166.4701	0.80615	-3.1719	0.46558	24.80716	121.0244	44.51657	-4.60938	6.21875	44.5166	-68	4.5
20:49:39:03	0	0.11888	0.0018622	0.0099591	0.99286	-0.091064	-0.33521	-0.036224	1.158521	-0.07620118	166.3434	0.92627	0.51025	-0.072327	24.80718	121.0244	44.43399	-4.33984	5.99609	44.434	-56	6.5
20:49:39:35	0	0.12953	0.012733	0.018639	0.99132	-0.40771	-0.027649	-0.070557	2.307386	-1.169842	165.0874	-1.0986	0.7832	3.2227	24.80719	121.0244	44.38768	-4.26172	5.76563	44.3877	-58	6.5
20:49:39:66	0	0.14592	0.012074	0.02435	0.98892	0.24121	0.019089	-0.098938	2.962991	-0.9611187	163.1873	0.072632	-1.5146	1.624	24.80721	121.0244	44.37413	-3.91602	5.65234	44.3741	-55	6
20:49:39:97	0	0.16082	0.01666	0.016618	0.9867	-0.38745	-0.13599	-0.097656	2.187388	-1.577654	161.4562	1.165	0.42578	0.26001	24.80722	121.0244	44.35112	-3.65234	5.43359	44.3511	-55	6.5
20:49:40:28	0	0.17435	0.01176	0.019578	0.98442	-0.056671	0.029617	-0.043762	2.444571	-0.9355085	159.8929	1.8623	1.0303	0.50293	24.80723	121.0243	44.28513	-3.33203	5.35547	44.2851	-53	6
20:49:40:59	0	0.18733	0.017889	0.018816	0.98195	-0.28711	-0.23804	-0.1106	2.503041	-1.609243	158.3633	-0.23169	-1.1465	2.4121	24.80724	121.0243	44.2465	-3.10352	5.10156	44.2465	-51	6.75
20:49:40:90	0	0.20486	0.0093907	0.016015	0.97862	-0.23511	-0.19446	-0.096436	2.016978	-0.6771382	156.3413	-0.52832	-0.35571	1.3682	24.80726	121.0243	44.22267	-2.86914	4.94922	44.2227	-57	6
20:49:41:21	0	0.21607	-0.0012121	0.0081749	0.97634	-0.27832	-0.20129	-0.013931	0.8846527	0.3380209	155.0447	0.1637	-0.0015287	1.5127	24.80727	121.0243	44.21196	-2.65625	4.74219	44.212	-52	6
20:49:41:52	0	0.21604	-0.0077823	0.007871	0.97632	-0.19263	-0.3103	-0.015854	0.6880657	1.065589	155.0512	-1.2871	-2.5566	-1.6084	24.80728	121.0243	44.14905	-2.4707	4.57422	44.1491	-53	6.5
20:49:41:83	0	0.21469	-0.012012	0.015412	0.97649	0.11371	-0.11713	0.00035644	1.429848	1.723521	155.2215	-0.18799	-2.0625	1.4766	24.80729	121.0243	44.11433	-2.39453	4.37891	44.1143	-58	6.25
20:49:42:14	0	0.2112	-0.00087736	0.0044811	0.97743	-0.15442	-0.21289	0.012321	0.4806872	0.2067213	155.6153	-1.6387	-1.6211	-0.50879	24.8073	121.0243	44.10573	-2.2832	4.13672	44.1057	-58	6
20:49:42:46	0	0.21404	0.0014265	0.013342	0.97673	0.074097	-0.16235	-0.049835	1.528443	0.1675697	155.2814	0.94727	-2.8828	0.26782	24.80731	121.0243	44.09092	-2.13867	3.90234	44.0909	-59	5.75
20:49:42:77	0	0.2208	0.015524	0.014084	0.97509	0.20508	-0.11682	-0.05304	1.967399	-1.378368	154.4583	-0.0021667	-2.8516	1.8721	24.80732	121.0243	44.0519	-1.93359	3.75586	44.0519	-55	5.75
20:49:43:08	0	0.23375	0.024832	0.03027	0.97151	0.51221	-0.12445	-0.079407	4.040694	-1.95399	152.8735	0.28491	-2.7969	4.4453	24.80733	121.0242	44.04231	-1.69727	3.68945	44.0423	-56	5.75
20:49:43:39	0	0.25951	0.036984	0.01989	0.96483	-0.68408	-0.15833	-0.1947	3.306835	-3.49972	149.7901	0.19666	1.8721	4.6523	24.80734	121.0242	44.01075	-1.56738	3.35156	44.0108	-59	6.25
20:49:43:70	0	0.29253	0.034631	0.031912	0.9551	0.34229	0.1637	-0.19873	4.663901	-2.721569	145.8312	-1.3574	-2.3711	-3.3809	24.80735	121.0242	44.02531	-1.25488	3.37305	44.0253	-58	6.25
20:49:44:01	0	0.3316	0.025643	0.017313	0.94291	-0.11438	0.043976	-0.23438	2.848102	-2.113334	141.1968	1.7988	0.91504	-2.3516	24.80736	121.0242	43.97886	-0.996582	3.14648	43.9789	-64	6
20:49:44:32	0	0.36312	0.017823	0.014145	0.93147	-0.29053	0.12274	-0.18359	2.252606	-1.313898	137.3791	0.93164	0.55029	0.41724	24.80737	121.0242	43.96981	-0.776367	3.08594	43.9698	-64	5
20:49:44:63	0	0.39048	0.003715	0.01594	0.92047	-0.01165	0.23145	-0.1416	1.847874	0.3213851	134.03	0.77588	-0.53906	0.10431	24.80737	121.0242	43.96962	-0.632324	3.07031	43.9696	-61	6.5
20:49:44:94	0	0.40889	-0.021523	0.0099414	0.91228	-0.53271	0.076965	-0.011047	0.03085911	2.716776	131.7163	0.77295	1.3076	-1.9736	24.80738	121.0242	43.96868	-0.498047	2.82031	43.9687	-61	6
20:49:45:25	0	0.40298	-0.036517	0.023559	0.91417	0.099792	0.17505	0.082886	0.7845022	4.919384	132.4562	-0.39282	-3.5195	-1.0391	24.80739	121.0242	43.93616	-0.46875	2.74219	43.9362	-63	5.75
20:49:45:57	0	0.37948	-0.048647	0.013833	0.92382	0.12347	0.062073	0.19043	-0.6543308	5.761098	135.3037	0.48853	0.26196	0.54395	24.8074	121.0242	43.91666	-0.531738	2.59766	43.9167	-65	5.75
20:49:45:88	0	0.33606	-0.048244	0.0088649	0.94056	-0.22705	-0.10175	0.32495	-0.9066829	5.549865	140.6331	-1.9268	-0.13525	-1.4434	24.8074	121.0242	43.8796	-0.657227	2.38477	43.8796	-67	5.75
20:49:46:19	0	0.2899	-0.042682	0.0091814	0.95606	-0.017227	-0.010872	0.31006	-0.4135546	4.987342	146.2452	-0.99072	1.0059	-0.93457	24.80741	121.0242	43.83375	-0.768555	2.37695	43.8337	-67	5.5
20:49:46:50	0	0.24822	-0.039389	0.018723	0.96772	-0.11835	0.088806	0.22522	0.9594023	4.906449	151.2683	-0.76953	-2.8828	1.0068	24.80741	121.0242	43.75426	-0.888184	1.97852	43.7543	-73	1.75
20:49:46:81	0	0.21765	-0.044722	0.014166	0.9749	-0.0038548	0.0052643	0.2373	0.4692536	5.357215	154.8515	0.020905	-0.46582	-0.1925	24.80742	121.0242	43.69859	-0.832031	1.46582	43.6986	-68	5.25
20:49:47:12	0	0.17027	-0.042086	0.0089243	0.98446	-0.27344	-0.0039787	0.3479	0.186275	4.927973	160.3825	0.28784	0.81641	1.1182	24.80742	121.0242	43.65411	-0.80127	1.15723	43.6541	-63	5.75
20:49:47:43	0	0.10551	-0.036008	0.010253	0.99371	-0.11139	0.025879	0.46924	0.734149	4.228101	167.9049	-0.52148	1.0605	1.127	24.80742	121.0242	43.62982	-0.79834	1.09082	43.6298	-67	5
20:49:47:74	0	0.03196	-0.02282	0.018752	0.99905	0.23413	-0.046875	0.52588	2.065898	2.682107	176.3838	0.75977	-1.9023	-0.0075264	24.80742	121.0242	43.58397	-0.668457	0.985352	43.584	-63	6
20:49:48:05	0	-0.025969	-0.009015	0.027607	0.99924	-0.0052414	-0.085327	0.2793	3.190048	0.9501448	-176.9961	-0.10217	-2.0801	-0.077698	24.80743	121.0242	43.55192	-0.614258	0.599609	43.5519	-63	5.5
20:49:48:37	0	-0.059798	-0.008757	0.024929	0.99786	0.004528	-0.01947	0.19019	2.912164	0.8305405	-173.1201	-0.96338	0.38013	-0.41968	24.80743	121.0242	43.52364	-0.455322	0.489258	43.5236	-61	6.25
20:49:48:67	0	-0.083467	-0.0029078	0.027372	0.99613	0.13879	0.056213	0.10626	3.153875	0.07011443	-170.4186	0.23901	-0.26172	-0.73145	24.80743	121.0242	43.49442	-0.283203	0.448486	43.4944	-61	5.5
20:49:48:99	0	-0.081045	-0.0025397	0.025553	0.99638	-0.13428	0.14172	-0.11389	2.942413	0.05266261	-170.6984	0.35913	1.4443	-0.93066	24.80743	121.0242	43.45258	-0.179932	0.237305	43.4526	-61	6.25
20:49:49:30	0	-0.07578	-0.0057509	0.023777	0.99682	-0.22253	0.11377	-0.022919	2.76711	0.4504381	-171.2944	-0.07312	-0.1178	-0.7793	24.80743	121.0242	43.39226	-0.0563049	0.182495	43.3923	-62	6.25
20:49:49:61	0	-0.073809	-0.0086201	0.021159	0.99701	0.089294	0.048492	0.016724	2.491295	0.8059094	-171.5146	-0.45801	-0.86865	-0.17041	24.80743	121.0242	43.35666	-0.00555038	0.238037	43.3567	-63	5.5
20:49:49:92	0	-0.073174	-0.013541	0.012857	0.99714	0.079468	0.054688	-0.007019	1.583328	1.439572	-171.586	-1.4492	0.33154	-0.52832	24.80743	121.0242	43.32975	0.0400085	0.278076	43.3298	-58	6.25
20:49:50:23	0	-0.072811	-0.015123	0.012086	0.99716	-0.0036507	0.0090714	0.0040894	1.507957	1.627456	-171.6261	0.13794	-0.69824	0.034088	24.80743	121.0242	43.30933	0.135864	0.280762	43.3093	-58	6
20:49:50:54	0	-0.072334	-0.013761	0.013623	0.99719	-0.014771	0.038971	-0.028915	1.671582	1.459759	-171.681	0.014977	2.1289	-1.209	24.80743	121.0242	43.26312	0.200439	0.33667	43.2631	-61	6.5
20:49:50:85	0	-0.071587	-0.010193	0.015477	0.99726	0.024673	0.05011	-0.034607	1.852934	1.037972	-171.7715	-1.4238	0.72607	-0.90625	24.80743	121.0242	43.25001	0.232544	0.325684	43.25	-61	6
20:49:51:16	0	-0.071317	-0.01025	0.015108	0.99729	-0.003046	-0.0021324	-0.0053406	1.81092	1.047946	-171.8028	1.2832	-0.70996	-1.167	24.80743	121.0242	43.23431	0.288086	0.299805	43.2343	-61	5.75
20:49:51:48	0	-0.070455	-0.011892	0.014563	0.99734	-0.033813	0.017838	-0.020355	1.76103	1.241672	-171.8993	-0.33984	0.55371	-0.71826	24.80743	121.0242	43.20736	0.3479	0.30249	43.2074	-62	6.25
20:49:51:79	0	-0.069718	-0.012847	0.013728	0.99739	-0.0023785	-0.0023346	0.0022125	1.67236	1.358756	-171.9832	-0.43896	-0.32715	-0.83057	24.80743	121.0242	43.18322	0.360107	0.30127	43.1832	-62	6.25
20:49:52:10	0	-0.069557	-0.013072	0.014173	0.99739	-0.0092316	-0.0055428	0.015747	1.724782	1.381248	-172.0006	-0.34668	0.2489	0.41992	24.80743	121.0242	43.16797	0.381836	0.333252	43.168	-61	6.5
20:49:52:41	0	-0.069236	-0.014901	0.011859	0.99742	0.0056229	0.0047073	0.015808	1.474361	1.609194	-172.0376	0.48975	1.1533	1.3457	24.80743	121.0242	43.15026	0.440186	0.336914	43.1503	-60	5.75
20:49:52:72	0	-0.069088	-0.014848	0.011319	0.99744	-0.0022812	0.0020466	-0.01062	1.412007	1.607708	-172.0556	-0.22632	1.1025	0.26978	24.80743	121.0242	43.12221	0.487061	0.357178	43.1222	-60	5.75
20:49:53:03	0	-0.068976	-0.014626	0.01196	0.99744	0.0018139	0.0026035	0.0044403	1.483392	1.577412	-172.0678	0.1366	1.0293	0.010002	24.80743	121.0242	43.07405	0.507813	0.352295	43.074	-61	6
20:49:53:34	0	-0.068778	-0.014596	0.01105	0.99746	-0.0013924	0.0046806	0.0040932	1.378754	1.581474	-172.092	1.1406	-1.1621	-1.2783	24.80743	121.0242	43.04689	0.543945	0.345703	43.0469	-57	6.25
20:49:53:65	0	-0.068697	-0.015393	0.011012	0.99746	0.0013971	0.014511	-0.00090885	1.38057	1.672996	-172.1001	0.057281	-0.4375	-1.4648	24.80743	121.0242	43.0286	0.586426	0.364258	43.0286	-59	5.75
20:49:53:96	0	-0.068569	-0.014737	0.011328	0.99747	0.025223	-0.013214	0.0045128	1.411239	1.595636	-172.1154	1.0273	-0.036682	-0.62598	24.80743	121.0242	43.02407	0.606445	0.371582	43.0241	-62	6.25
20:49:54:27	0	-0.068648	-0.014922	0.011593	0.99746	0.032196	0.032867	0.00057936	1.443198	1.614576	-172.1056	0.36035	-0.30029	-0.4895	24.80743	121.0242	42.98727	0.612793	0.354492	42.9873	-60	5.75
20:49:54:58	0	-0.068389	-0.014516	0.011959	0.99748	-0.04306	-0.010345	-0.0028763	1.481389	1.565649	-172.1355	-0.59717	0.427	0.71094	24.80743	121.0242	42.96809	0.635254	0.366699	42.9681	-62	6.5
20:49:54:89	0	-0.068298	-0.014494	0.01166	0.99749	0.030548	-0.0049973	-0.0060196	1.446903	1.565697	-172.1464	-0.30908	1.0176	0.21472	24.80743	121.0242	42.96653	0.651855	0.35791	42.9665	-62	6.25
20:49:55:21	0	-0.068264	-0.014894	0.012072	0.99748	-0.0091019	0.0012121	0.0093842	1.497143	1.608175	-172.149	0.21594	0.72949	-0.13477	24.80743	121.0242	42.96886	0.670898	0.357178	42.9689	-60	6
20:49:55:52	0	-0.06845	-0.014624	0.011693	0.99748	-0.050262	-0.0040474	0.0031719	1.451957	1.580012	-172.1286	0.22339	-0.55713	-0.68164	24.80743	121.0242	42.93979	0.656738	0.332031	42.9398	-60	6
20:49:55:83	0	-0.068234	-0.014553	0.012439	0.99749	0.03064	0.010368	-0.0038681	1.536402	1.56636	-172.1525	0.27173	0.63428	1.543	24.80743	121.0242	42.92172	0.688965	0.349609	42.9217	-60	5.75
20:49:56:14	0	-0.068184	-0.015307	0.011227	0.99749	0.022156	0.0035915	0.0025425	1.403663	1.66219	-172.1588	0.037933	0.085693	-0.014915	24.80743	121.0242	42.91697	0.679199	0.329834	42.917	-62	6
20:49:56:45	0	-0.06811	-0.015817	0.011266	0.99749	0.026855	0.014076	-0.0079422	1.412031	1.72027	-172.1665	0.24707	0.84229	1.8096	24.80743	121.0242	42.91232	0.695801	0.336426	42.9123	-62	6
20:49:56:76	0	-0.06857	-0.015551	0.01074	0.99747	0.02562	-0.013084	0.0051842	1.350503	1.693412	-172.1149	1.3252	-0.77441	-1.8564	24.80743	121.0242	42.8881	0.666504	0.309326	42.8881	-62	5.75
20:49:57:07	0	-0.068204	-0.015346	0.011311	0.99749	0.026642	-0.0055656	-0.014297	1.413546	1.66593	-172.1564	-0.59326	1.1992	0.35767	24.80743	121.0242	42.88743	0.687012	0.324463	42.8874	-63	6
20:49:57:38	0	-0.068357	-0.015073	0.012364	0.99747	0.023956	0.022781	-0.0066147	1.532045	1.626271	-172.1375	-0.44653	-0.4519	-0.69238	24.80743	121.0242	42.90157	0.690918	0.308105	42.9016	-62	6.25
20:49:57:69	0	-0.068394	-0.015063	0.012165	0.99747	-0.0020447	-0.018402	0.0085068	1.509267	1.62656	-172.1336	0.42358	0.22144	-0.39478	24.80743	121.0242	42.88396	0.685059	0.310303	42.884	-62	6
20:49:58:00	0	-0.068648	-0.01529	0.011659	0.99746	0.0093918	0.0006237	0.0062218	1.45371	1.65618	-172.1048	0.46387	-0.078003	0.22534	24.80743	121.0242	42.84175	0.649414	0.287354	42.8418	-61	6.25
20:49:58:32	0	-0.068735	-0.015977	0.011637	0.99744	0.046783	0.012291	0.0019894	1.456757	1.734766	-172.0937	0.24707	0.4248	1.6191	24.80743	121.0242	42.82162	0.654785	0.284668	42.8216	-63	6
20:49:58:62	0	-0.068658	-0.015887	0.011276	0.99745	-0.0097961	-0.004879	-0.004158	1.414633	1.727428	-172.1034	-0.23743	0.62988	0.31714	24.80743	121.0242	42.80596	0.669922	0.289795	42.806	-63	5.25
20:49:58:94	0	-0.068823	-0.016637	0.011195	0.99743	0.014633	0.030182	-0.0081406	1.411615	1.813542	-172.0833	-0.44482	-0.34497	-1.1943	24.80743	121.0242	42.79225	0.668945	0.276855	42.7923	-63	5.5
20:49:59:25	0	-0.068953	-0.016924	0.011228	0.99741	-0.050568	-0.0058556	0.0021095	1.417885	1.84595	-172.0678	-0.87988	0.15027	1.5537	24.80743	121.0242	42.7604	0.641113	0.273438	42.7604	-63	6.25
20:49:59:56	0	-0.068806	-0.01723	0.010708	0.99742	-0.00087738	0.019638	0.0090561	1.360596	1.885281	-172.0851	0.76611	0.24646	0.1637	24.80743	121.0242	42.75248	0.663086	0.272217	42.7525	-63	5.75
20:49:59:87	0	-0.068797	-0.017608	0.010383	0.99742	-0.02771	-0.017593	0.0047264	1.326463	1.931074	-172.0863	-0.64307	0.76611	0.44531	24.80744	121.0242	42.7424	0.672363	0.284912	42.7424	-63	5.75
20:50:00:18	0	-0.068685	-0.017154	0.010458	0.99744	0.026688	-0.0086975	0.015549	1.331217	1.878666	-172.0997	0.6001	-0.41211	0.34546	24.80744	121.0242	42.74376	0.685547	0.2771	42.7438	-62	6
20:50:00:49	0	-0.068996	-0.017097	0.011213	0.99741	0.02951	0.022369	-0.0088272	1.417647	1.865792	-172.0626	0.43628	0.73193	1.3213	24.80743	121.0242	42.7324	0.645996	0.259766	42.7324	-63	6.5
20:50:00:80	0	-0.068715	-0.016907	0.011105	0.99743	-0.03656	-0.0024853	-0.0091858	1.403266	1.845315	-172.0955	-0.71143	0.2179	0.07428	24.80744	121.0242	42.72014	0.655762	0.260986	42.7201	-63	5.75
20:50:01:11	0	-0.068649	-0.017321	0.011319	0.99743	-0.020218	0.0091553	0.00035238	1.430864	1.891045	-172.102	0.053528	0.88184	-0.8501	24.80744	121.0242	42.7226	0.666504	0.265137	42.7226	-62	6.25
20:50:01:42	0	-0.068584	-0.016967	0.011111	0.99744	0.032288	-0.028702	-7.02E-05	1.404205	1.85232	-172.1103	0.49048	0.3833	-0.62109	24.80744	121.0242	42.72938	0.655762	0.263428	42.7294	-63	6.25
20:50:01:73	0	-0.068481	-0.017081	0.011044	0.99745	0.019806	-0.0072289	-0.0064278	1.39729	1.865972	-172.1221	-0.28589	0.84717	0.5708	24.80744	121.0242	42.72725	0.643555	0.254639	42.7272	-63	5.75
20:50:02:05	0	-0.068797	-0.017826	0.011253	0.99741	0.043488	0.030045	-0.0020504	1.427717	1.949112	-172.0841	-0.21069	-0.29712	-0.36865	24.80744	121.0242	42.69475	0.606934	0.229126	42.6948	-63	5.75
20:50:02:36	0	-0.068494	-0.017526	0.011168	0.99744	-0.048218	0.0058861	-0.012817	1.414959	1.915918	-172.1197	0.020416	-0.050568	-1.0303	24.80744	121.0242	42.70451	0.619141	0.237793	42.7045	-63	5.75
20:50:02:67	0	-0.068484	-0.018131	0.011152	0.99743	0.043762	0.012909	0.00091505	1.417929	1.985215	-172.1198	0.15466	0.34546	1.3594	24.80744	121.0242	42.70355	0.607422	0.230835	42.7036	-62	5.75
20:50:02:98	0	-0.06828	-0.018225	0.01105	0.99744	-0.00015056	0.03183	-0.0074501	1.40656	1.997065	-172.1433	0.45898	0.71533	-0.51074	24.80744	121.0242	42.69893	0.605469	0.233398	42.6989	-63	6
20:50:03:29	0	-0.068539	-0.018629	0.01078	0.99742	-0.041718	-0.019501	0.013084	1.379388	2.044949	-172.1134	-1.2549	-0.27905	1.4688	24.80744	121.0242	42.64951	0.541016	0.210083	42.6495	-62	6
20:50:03:60	0	-0.068369	-0.018582	0.010435	0.99743	0.01799	-0.007164	0.0088882	1.339267	2.042602	-172.1337	0.5083	-0.45068	0.37061	24.80744	121.0242	42.63948	0.557617	0.205566	42.6395	-62	6
20:50:03:91	0	-0.068467	-0.019191	0.01078	0.99741	0.0018015	-0.0024643	0.0058975	1.383747	2.109368	-172.1208	0.21533	0.067139	-0.6626	24.80744	121.0242	42.63729	0.532715	0.196045	42.6373	-63	5.75
20:50:04:23	0	-0.068377	-0.018804	0.010592	0.99743	0.0090561	-0.026657	0.0023441	1.358996	2.066699	-172.1321	0.15161	0.75879	-0.48486	24.80744	121.0242	42.62254	0.525879	0.203735	42.6225	-63	5.5
20:50:04:53	0	-0.068397	-0.018761	0.010312	0.99743	0.03952	-0.006794	-0.00079775	1.326665	2.063899	-172.1305	0.082764	0.18457	0.074951	24.80744	121.0242	42.59105	0.487549	0.182983	42.591	-63	6
20:50:04:85	0	-0.068285	-0.019086	0.010937	0.99742	0.0025406	0.00082827	0.0044708	1.400488	2.096333	-172.1415	0.092529	0.88965	-0.024811	24.80744	121.0242	42.58208	0.494385	0.186035	42.5821	-63	6
20:50:05:16	0	-0.068122	-0.018749	0.010793	0.99744	-0.031769	-0.0013227	-0.0046005	1.381035	2.059122	-172.1611	0.16565	-0.96387	-1.1357	24.80744	121.0242	42.56853	0.491943	0.176392	42.5685	-62	5.75
20:50:05:47	0	-0.067952	-0.019277	0.010814	0.99744	0.035736	0.038483	0.0022488	1.387194	2.119576	-172.1797	0.004631	-0.31787	-0.31641	24.80744	121.0242	42.55708	0.482178	0.172363	42.5571	-63	6
20:50:05:78	0	-0.067923	-0.019903	0.010708	0.99743	0.030457	0.0013647	0.01062	1.379936	2.192059	-172.1822	0.32251	0.55225	1.8379	24.80744	121.0242	42.54528	0.442139	0.161499	42.5453	-64	6
20:50:06:09	0	-0.067712	-0.019701	0.010224	0.99746	0.023438	-0.011986	0.005867	1.322573	2.172996	-172.2078	0.82031	-0.64551	-0.30322	24.80744	121.0242	42.54006	0.446777	0.159058	42.5401	-63	5.75
20:50:06:40	0	-0.067508	-0.019839	0.010114	0.99747	0.011765	0.011955	0.012566	1.310618	2.189955	-172.2313	0.65527	-0.081299	0.18115	24.80744	121.0242	42.53696	0.44458	0.158936	42.537	-63	6
20:50:06:71	0	-0.067513	-0.020058	0.010122	0.99747	-0.068054	-0.0083923	0.0035114	1.313229	2.214901	-172.2303	-0.26172	-0.026199	0.78027	24.80744	121.0242	42.51738	0.43042	0.156128	42.5174	-63	6
20:50:07:02	0	-0.067213	-0.020198	0.010137	0.99748	-0.0004456	0.016373	0.0059738	1.315384	2.231197	-172.2646	0.35352	0.73975	-0.4104	24.80744	121.0242	42.47865	0.413086	0.149902	42.4786	-62	5.75
20:50:07:33	0	-0.06702	-0.020355	0.010236	0.99749	-0.029526	0.0021706	-0.00016201	1.327455	2.248605	-172.2863	-0.27783	-0.41919	1.6055	24.80744	121.0242	42.45243	0.412109	0.146851	42.4524	-63	6.5
20:50:07:64	0	-0.066751	-0.020141	0.010043	0.99752	0.0040398	-0.0060959	-0.01413	1.303124	2.226052	-172.318	-0.81055	1.0176	-0.12195	24.80744	121.0242	42.44091	0.405762	0.146362	42.4409	-62	6
20:50:07:96	0	-0.066716	-0.020416	0.010546	0.99751	-0.0049362	-0.0059052	0.0047188	1.36278	2.253675	-172.3204	0.1781	0.66895	-0.40967	24.80744	121.0242	42.43145	0.394531	0.135254	42.4314	-63	5.5
20:50:08:27	0	-0.066426	-0.020651	0.0099655	0.99753	0.019897	-0.010147	0.011818	1.297475	2.285317	-172.3547	0.22729	-0.79736	0.29736	24.80744	121.0242	42.39632	0.359375	0.119873	42.3963	-63	6.25
20:50:08:58	0	-0.066294	-0.021169	0.0097587	0.99753	-0.053375	0.0027008	-0.0019026	1.277492	2.346344	-172.3694	-0.46826	-0.25903	0.66455	24.80744	121.0242	42.39178	0.35498	0.123413	42.3918	-63	6
20:50:08:89	0	-0.065956	-0.02127	0.009288	0.99755	-0.020035	0.013153	0.00036025	1.223615	2.361904	-172.4092	0.60156	0.23206	-0.22461	24.80744	121.0242	42.38816	0.358398	0.120117	42.3882	-62	6.25
20:50:09:20	0	-0.065833	-0.021531	0.0092921	0.99756	-0.018295	0.014046	-0.0070724	1.225788	2.391831	-172.4229	-0.35254	-0.11938	1.5166	24.80744	121.0242	42.39525	0.349121	0.11554	42.3952	-63	6
20:50:09:51	0	-0.065682	-0.021494	0.0091225	0.99757	-0.033569	0.006279	-0.008316	1.205728	2.389068	-172.4408	0.44458	-1.2617	-1.2012	24.80744	121.0242	42.36244	0.312988	0.0897827	42.3624	-63	5.75
20:50:09:82	0	-0.065352	-0.021724	0.0094895	0.99758	0.038422	0.033661	0.012596	1.248687	2.413068	-172.4774	0.34351	-0.35425	0.17786	24.80744	121.0242	42.34921	0.314697	0.0922852	42.3492	-62	6
20:50:10:13	0	-0.065105	-0.021826	0.0093054	0.9976	0.015396	-0.017654	0.0040245	1.227785	2.426345	-172.5061	-0.060089	0.56201	-0.010345	24.80744	121.0242	42.33764	0.294922	0.0932007	42.3376	-62	5.75
20:50:10:44	0	-0.064995	-0.021892	0.0093724	0.9976	0.046509	0.02626	0.011688	1.235675	2.433502	-172.5184	-0.01619	-1.0791	-0.13464	24.80744	121.0242	42.33318	0.277588	0.0700073	42.3332	-63	5.25
20:50:10:76	0	-0.06476	-0.022032	0.0090337	0.99762	-0.036957	0.0032158	-0.010391	1.197404	2.452426	-172.5461	0.35669	-0.61914	-1.0381	24.80743	121.0242	42.30439	0.252197	0.0631714	42.3044	-63	6
20:50:11:07	0	-0.064394	-0.022579	0.009185	0.99763	-0.0005517	-0.02034	0.0060616	1.217901	2.514208	-172.587	0.13245	0.76416	-0.59961	24.80743	121.0242	42.2851	0.253174	0.0684814	42.2851	-63	6
20:50:11:38	0	-0.064229	-0.021957	0.0089707	0.99765	0.014038	-0.0097046	0.005806	1.188328	2.444882	-172.6074	1.0967	-1.3438	-1.3906	24.80743	121.0242	42.28692	0.244141	0.0582886	42.2869	-62	5.75
20:50:11:69	0	-0.063987	-0.022147	0.0093228	0.99766	0.036987	0.046997	-0.0065041	1.229433	2.464324	-172.6341	-0.30078	0.14722	-0.7959	24.80743	121.0242	42.30504	0.234009	0.0570679	42.305	-64	6
20:50:12:00	0	-0.063747	-0.022153	0.0094647	0.99768	-0.041321	-0.0016575	0.0027008	1.245127	2.464233	-172.6613	-0.64453	-0.46851	1.8389	24.80743	121.0242	42.27305	0.207275	0.0544128	42.273	-63	5.75
20:50:12:31	0	-0.063412	-0.022161	0.0093205	0.9977	0.042206	0.026276	-0.007019	1.227861	2.466667	-172.7001	-0.5918	-0.5459	-0.92139	24.80743	121.0242	42.27267	0.206909	0.0464478	42.2727	-63	6
20:50:12:62	0	-0.06305	-0.022254	0.0091283	0.99772	-0.027252	0.013443	0.0054665	1.205646	2.479125	-172.742	0.50098	-0.40869	0.14343	24.80743	121.0242	42.28322	0.208984	0.0480347	42.2832	-62	6
20:50:12:93	0	-0.062857	-0.022474	0.0089786	0.99773	0.018829	-0.027527	0.010384	1.189636	2.505552	-172.7643	0.64893	-0.10645	-0.84766	24.80743	121.0242	42.28099	0.203491	0.0467529	42.281	-62	6
20:50:13:25	0	-0.062532	-0.022292	0.0089611	0.99775	-0.027679	-0.015236	-0.013184	1.185492	2.48534	-172.8019	-0.74561	0.53662	0.14954	24.80743	121.0242	42.24397	0.179932	0.0427551	42.244	-63	6
20:50:13:55	0	-0.062278	-0.022519	0.0092724	0.99776	0.013344	0.018799	-0.0047989	1.222124	2.50929	-172.8299	-0.35498	-0.70752	-1.0947	24.80743	121.0242	42.2448	0.180542	0.029129	42.2448	-63	5.75
20:50:13:87	0	-0.061935	-0.022432	0.0093388	0.99778	0.0022984	-0.025665	0.012985	1.228241	2.499368	-172.8694	-0.1189	0.56104	0.083679	24.80743	121.0242	42.24962	0.172852	0.038269	42.2496	-63	5.5
20:50:14:17	0	-0.06172	-0.022616	0.009459	0.99779	0.037384	0.042145	0.00081682	1.242781	2.519761	-172.8934	0.19495	-0.070923	-0.23291	24.80743	121.0242	42.25224	0.16394	0.0203705	42.2522	-63	6
20:50:14:49	0	-0.061442	-0.022801	0.0088167	0.99781	0.017181	-0.0047417	0.0019112	1.169873	2.545811	-172.9268	-0.046387	0.3396	0.71729	24.80743	121.0242	42.22953	0.146606	0.0174103	42.2295	-63	5.75
20:50:14:80	0	-0.061143	-0.023286	0.0086511	0.99782	0.030624	0.025314	-0.007267	1.153606	2.602821	-172.9608	0.14331	1.1357	1.1875	24.80743	121.0242	42.2338	0.150757	0.0175323	42.2338	-63	6
20:50:15:11	0	-0.060731	-0.023215	0.0083364	0.99785	0.020081	-0.0062256	-0.0092697	1.115998	2.597386	-173.009	-0.68896	0.79395	0.32764	24.80743	121.0242	42.24499	0.139771	0.0134659	42.245	-62	6.25
20:50:15:42	0	-0.060657	-0.023291	0.0087353	0.99785	-0.0096893	-0.0075417	0.0039902	1.162007	2.60336	-173.0164	-0.029861	-0.11017	-0.95117	24.80743	121.0242	42.24253	0.142578	-0.000813007	42.2425	-62	5.75
20:50:15:73	0	-0.060401	-0.023335	0.0087732	0.99786	-0.032837	-0.0098114	0.0029469	1.165981	2.608408	-173.0456	-0.36401	0.098511	-0.48901	24.80743	121.0242	42.25137	0.135864	-0.000334024	42.2514	-63	5.75
20:50:16:04	0	-0.059981	-0.023186	0.0081934	0.9979	0.03363	-0.0026436	-0.018234	1.097482	2.595898	-173.0956	-0.62354	0.76025	-0.30444	24.80743	121.0242	42.22793	0.119934	-0.00187969	42.2279	-62	6.25
20:50:16:35	0	-0.059733	-0.023743	0.0083715	0.9979	0.027298	0.011818	0.0071449	1.121078	2.65863	-173.1228	-0.019592	-0.27905	1.8633	24.80743	121.0242	42.23083	0.118347	-0.01371	42.2308	-63	5.75
20:50:16:67	0	-0.059486	-0.023727	0.0081085	0.99791	-0.031952	-0.0015259	0.012741	1.090201	2.658913	-173.152	0.81641	-0.63818	0.043335	24.80743	121.0242	42.24464	0.122864	-0.0120392	42.2446	-64	5.75
20:50:16:98	0	-0.059205	-0.023864	0.00821	0.99793	0.045868	-0.0018387	-0.019119	1.102024	2.674268	-173.1837	0.31104	0.77197	-0.57031	24.80743	121.0242	42.23724	0.113464	-0.00340271	42.2372	-63	5.5
20:50:17:29	0	-0.058867	-0.024162	0.0084986	0.99794	0.0030174	0.014015	0.0020027	1.136188	2.706679	-173.2214	0.21545	1.0957	-0.0094452	24.80743	121.0242	42.21501	0.09552	-0.0119019	42.215	-63	5.75
20:50:17:60	0	-0.058568	-0.023671	0.0083134	0.99797	-0.050568	0.014236	-0.018463	1.110841	2.652185	-173.2569	-0.5249	0.33716	-0.7915	24.80743	121.0242	42.22705	0.0917358	-0.0113754	42.2271	-63	6
20:50:17:91	0	-0.058405	-0.023685	0.0085736	0.99798	0.01619	0.018356	-0.00060892	1.140282	2.65216	-173.275	-0.48657	-0.56201	-1.2373	24.80743	121.0242	42.21671	0.0888672	-0.0249329	42.2167	-63	6.25
20:50:18:22	0	-0.058077	-0.023682	0.0087856	0.99799	-0.037842	-0.023026	0.013809	1.163668	2.650769	-173.3121	-1.0264	0.28516	1.1279	24.80743	121.0242	42.19735	0.0668945	-0.0116577	42.1974	-63	5.5
20:50:18:53	0	-0.057859	-0.023566	0.0087377	0.99801	0.035065	0.028885	0.0046349	1.156816	2.638055	-173.3375	0.16882	-0.63428	-0.51074	24.80743	121.0242	42.1953	0.0718384	-0.0249329	42.1953	-63	5.75
20:50:18:84	0	-0.057536	-0.023623	0.0083873	0.99803	0.028763	-0.0051613	-0.01046	1.116231	2.647259	-173.3753	0.48145	0.271	-1.1484	24.80743	121.0242	42.1835	0.0665283	-0.0198822	42.1835	-63	6
20:50:19:15	0	-0.057228	-0.023894	0.0084449	0.99804	0.017761	0.0099258	0.0048447	1.123802	2.678225	-173.4102	-0.58301	-1.1172	-0.98779	24.80743	121.0242	42.18546	0.0604553	-0.0321045	42.1855	-63	5.75
20:50:19:46	0	-0.056918	-0.023841	0.0084885	0.99806	-0.039459	0.0045547	-0.0051575	1.127615	2.672249	-173.4458	-0.030472	-0.44312	-0.41919	24.80743	121.0242	42.18367	0.0597229	-0.0274353	42.1837	-63	6
20:50:19:77	0	-0.056607	-0.024056	0.0088327	0.99807	-0.026276	0.0032825	0.0069427	1.167615	2.694945	-173.4802	0.13562	-0.37866	-0.95898	24.80743	121.0242	42.16331	0.0534058	-0.0319214	42.1633	-64	5.5
20:50:20:08	0	-0.056325	-0.023693	0.0086124	0.99809	-0.022705	-0.0024681	-0.0040512	1.139243	2.655206	-173.5138	0.625	-1.2041	-1.0752	24.80743	121.0242	42.16005	0.0489807	-0.034729	42.16	-64	6
20:50:20:39	0	-0.056091	-0.024124	0.0084804	0.9981	-0.011345	0.018692	0.010223	1.126321	2.705651	-173.5404	0.028122	-1.3223	-1.1641	24.80743	121.0242	42.1458	0.0436707	-0.0426636	42.1458	-63	5.5
20:50:20:71	0	-0.055746	-0.023788	0.0082168	0.99813	-0.045013	0.0056114	-0.0087051	1.093018	2.669269	-173.5811	0.97461	-0.88135	-1.3496	24.80743	121.0242	42.14922	0.04422	-0.038269	42.1492	-58	6.5
20:50:21:02	0	-0.055315	-0.024129	0.0086999	0.99814	0.035522	-0.0055885	0.01368	1.149383	2.705733	-173.6289	0.47461	0.49536	0.92578	24.80743	121.0242	42.11629	0.0350952	-0.0307159	42.1163	-69	4.25
20:50:21:33	0	-0.055018	-0.023674	0.0087302	0.99817	-0.03418	0.00034332	-0.0048332	1.149133	2.653771	-173.6636	-0.38623	-0.035522	-0.41895	24.80743	121.0242	42.108	0.0266418	-0.0345764	42.108	-63	5.5
20:50:21:64	0	-0.054737	-0.023775	0.0091223	0.99818	0.003767	-0.0060692	0.0077248	1.193934	2.663176	-173.6947	0.19312	0.71729	0.10394	24.80743	121.0242	42.10774	0.0267487	-0.0379028	42.1077	-63	5.75
20:50:21:95	0	-0.054394	-0.023628	0.0087679	0.9982	0.040314	-0.015778	0.0050812	1.151505	2.648955	-173.7353	0.92529	-0.75586	-0.81982	24.80743	121.0242	42.10178	0.0240326	-0.0437927	42.1018	-63	5.75
20:50:22:26	0	-0.054091	-0.023806	0.0089695	0.99821	0.044617	0.028397	0.0011969	1.17491	2.668468	-173.7692	-0.3147	-1.001	-0.61768	24.80743	121.0242	42.06615	0.0148621	-0.0479736	42.0662	-63	6
20:50:22:57	0	-0.053776	-0.023704	0.0088067	0.99823	0.032349	-0.023056	0.0042076	1.154776	2.658122	-173.806	0.8584	-0.46362	-0.58105	24.80743	121.0242	42.06188	0.0141296	-0.0470886	42.0619	-64	5.75
20:50:22:88	0	-0.05349	-0.024195	0.0090433	0.99823	-0.023193	0.010468	0.0011892	1.184176	2.713271	-173.8375	0.61084	0.79932	-0.40381	24.80743	121.0242	42.05363	0.0134964	-0.049408	42.0536	-63	5.75
20:50:23:19	0	-0.052986	-0.024264	0.0082235	0.99827	0.041687	-0.011017	-0.0026989	1.089334	2.726728	-173.8974	-0.68457	-0.08374	0.3418	24.80743	121.0242	42.05649	0.00135517	-0.0517883	42.0565	-63	6
20:50:23:51	0	-0.052908	-0.024361	0.0085687	0.99827	-0.048004	0.0031071	0.0041237	1.129257	2.735804	-173.9053	-0.44287	-0.68359	1.4873	24.80743	121.0242	42.01891	-0.00146961	-0.0562744	42.0189	-63	5.25
20:50:23:82	0	-0.05252	-0.024299	0.0083836	0.99829	-0.01088	0.0041542	0.006382	1.106609	2.730256	-173.9506	0.47437	0.15051	-0.15564	24.80743	121.0242	41.98283	0.00222969	-0.0530396	41.9828	-60	6
20:50:24:13	0	-0.052206	-0.0244	0.0086758	0.9983	-0.043854	-0.024673	0.0078201	1.139838	2.740475	-173.9856	-1.3877	0.15063	1.1211	24.80743	121.0242	41.97334	-0.013298	-0.0505981	41.9733	-65	5.5
20:50:24:44	0	-0.051822	-0.02395	0.0087127	0.99833	-0.0022602	-0.0067825	0.0066414	1.140287	2.689191	-174.0303	0.29419	0.069824	0.31079	24.80743	121.0242	41.96359	-0.00600052	-0.055542	41.9636	-63	5.75
20:50:24:75	0	-0.051657	-0.023854	0.0093182	0.99834	0.0096207	0.010193	-0.0018024	1.208625	2.674741	-174.0477	-0.049316	-0.13257	2.0625	24.80743	121.0242	41.94507	-0.0103531	-0.0548096	41.9451	-63	5.25
20:50:25:06	0	-0.051328	-0.0234	0.0092568	0.99836	-0.035889	-0.0010471	-0.011475	1.197992	2.623475	-174.0863	-0.45557	0.42017	-0.1875	24.80743	121.0242	41.93524	-0.0183105	-0.0568542	41.9352	-63	5.5
20:50:25:37	0	-0.051033	-0.023832	0.0093727	0.99837	-0.028259	0.0085983	0.00072002	1.213061	2.672703	-174.1192	0.020401	0.32422	-1.29	24.80743	121.0242	41.9389	-0.0184174	-0.0648193	41.9389	-64	6
20:50:25:68	0	-0.05063	-0.023692	0.0089447	0.9984	0.0089569	0.011276	-0.023315	1.162125	2.659567	-174.1669	-0.9043	1.2734	-0.082642	24.80743	121.0242	41.93182	-0.0270081	-0.0571594	41.9318	-64	5.75
20:50:26:00	0	-0.050404	-0.023964	0.009428	0.9984	0.038788	0.0052757	0.0086746	1.218483	2.688255	-174.1912	0.50342	0.19678	1.5215	24.80743	121.0242	41.90757	-0.0235138	-0.0629883	41.9076	-63	5.75
20:50:26:30	0	-0.050066	-0.023943	0.0091726	0.99842	-0.050629	-0.0066071	0.0018625	1.188198	2.687659	-174.2307	-0.087646	-0.97803	-0.15601	24.80743	121.0242	41.90015	-0.0329285	-0.0704956	41.9002	-63	6.25
20:50:26:62	0	-0.049724	-0.024607	0.008733	0.99842	0.032776	0.013924	-0.0043678	1.140758	2.766602	-174.2702	-0.79053	-0.60547	-0.78369	24.80743	121.0242	41.9027	-0.0374451	-0.072937	41.9027	-63	6
20:50:26:93	0	-0.04954	-0.024455	0.0085337	0.99844	0.035431	-0.020813	0.0082245	1.116542	2.750591	-174.2921	0.81592	-0.033295	-0.62988	24.80743	121.0242	41.89334	-0.0324402	-0.0638428	41.8933	-63	5.75
20:50:27:24	0	-0.049139	-0.02433	0.0089179	0.99846	0.023453	0.024612	0.0075378	1.158739	2.734518	-174.3373	0.55762	0.3147	0.056305	24.80743	121.0242	41.86048	-0.0344238	-0.0614929	41.8605	-63	5.75
20:50:27:55	0	-0.048855	-0.024347	0.0088514	0.99847	0.013885	-0.020691	0.0073509	1.150441	2.737204	-174.37	-0.17212	0.17566	-0.38794	24.80743	121.0242	41.87098	-0.042572	-0.0632935	41.871	-63	5.75
20:50:27:86	0	-0.048486	-0.024294	0.0090606	0.99849	0.0056725	0.025589	0.0072327	1.173087	2.730323	-174.4119	0.68945	-0.32568	0.1192	24.80743	121.0242	41.87213	-0.0422058	-0.0704956	41.8721	-63	5.5
20:50:28:17	0	-0.04836	-0.024239	0.0086939	0.9985	0.0081024	-0.0099258	0.0058861	1.130429	2.726218	-174.4274	1.0439	-1.3271	-0.93945	24.80743	121.0242	41.86417	-0.0461121	-0.0776978	41.8642	-63	5.5
20:50:28:48	0	-0.04791	-0.024772	0.0090053	0.9985	-0.0014353	0.018906	-0.010017	1.167846	2.786129	-174.4775	-0.090576	1.5605	-0.59814	24.80743	121.0242	41.82881	-0.0498047	-0.0626831	41.8288	-63	6
20:50:28:79	0	-0.047522	-0.024399	0.0087901	0.99853	-0.0042419	0.00053453	-0.0095215	1.140042	2.744965	-174.5232	-0.62988	0.31348	-0.18359	24.80743	121.0242	41.82238	-0.059967	-0.0701294	41.8224	-63	5.75
20:50:29:10	0	-0.047308	-0.024695	0.0091044	0.99853	9.87E-05	-0.0059242	0.0083847	1.177091	2.777442	-174.5465	-0.13831	0.032562	-0.59473	24.80743	121.0242	41.81329	-0.0603943	-0.0756226	41.8133	-65	5.75
20:50:29:42	0	-0.047057	-0.024318	0.0088641	0.99856	0.039368	-0.01384	0.0016289	1.146805	2.735904	-174.5764	0.69482	-0.51416	-0.72607	24.80743	121.0242	41.81148	-0.0635376	-0.0770874	41.8115	-64	5.5
20:50:29:73	0	-0.046847	-0.024922	0.009038	0.99855	-0.048279	0.038635	-0.014084	1.169445	2.804269	-174.5992	0.36206	-0.56104	-0.93848	24.80743	121.0242	41.78582	-0.0727539	-0.0916748	41.7858	-64	5.75
20:50:30:04	0	-0.048056	-0.029057	0.00086849	0.99842	-0.058594	0.053864	0.031738	0.2598133	3.321492	-174.4812	-1.8262	-1.8037	2.8828	24.80743	121.0242	41.78951	-0.230957	-0.0249634	41.7895	-62	6
20:50:30:35	0	-0.059229	-0.035962	-0.010979	0.99754	0.045685	0.12891	0.089233	-1.013636	4.189088	-173.2411	0.43237	5.0859	-0.25415	24.80743	121.0242	41.78794	-0.54248	0.280518	41.7879	-63	6
20:50:30:66	0	-0.089678	-0.043948	-0.026383	0.99465	-0.1167	0.10254	0.31348	-2.567261	5.287771	-169.8148	-0.58203	-3	1.3867	24.80743	121.0242	41.78852	-1.02344	0.529297	41.7885	-69	3.75
20:50:30:97	0	-0.13867	-0.053185	-0.047376	0.98777	-0.26733	0.036255	0.34375	-4.55412	6.788765	-164.2875	-2.0586	4.9414	-1.9619	24.80743	121.0242	41.7621	-1.47266	0.695801	41.7621	-65	5.25
20:50:31:28	0	-0.20682	-0.063591	-0.065875	0.97409	0.19751	0.17932	0.48633	-5.924556	8.692669	-156.4769	-1.9092	2.4707	-1.5508	24.80743	121.0242	41.7536	-2.03125	0.720215	41.7536	-70	4
20:50:31:59	0	-0.29712	-0.057478	-0.07982	0.94976	0.19006	-0.02272	0.59912	-6.830543	9.010297	-145.7961	-2.1074	-0.28857	1.8701	24.80743	121.0242	41.76485	-2.50586	0.537109	41.7648	-63	6
20:50:31:90	0	-0.38498	-0.031272	-0.080836	0.91885	-0.39648	-0.58203	0.43433	-7.20244	6.875313	-134.9677	-9.0547	1.1367	-0.45728	24.80743	121.0242	41.76554	-2.86523	0.147217	41.7655	-67	5.25
20:50:32:21	0	-0.44464	-0.031959	-0.075519	0.89195	-0.12976	-0.11298	0.39771	-6.149669	7.132755	-127.3903	1.0869	-4.2734	-0.33887	24.80743	121.0241	41.78862	-3.14258	-0.349365	41.7886	-62	6
20:50:32:53	0	-0.49116	-0.024594	-0.076804	0.86733	-0.049805	-0.17358	0.33154	-6.306012	6.782887	-121.3295	-0.65576	1.7412	3.9512	24.80742	121.0241	41.83974	-3.28516	-0.736816	41.8397	-57	5.75
20:50:32:83	0	-0.5328	-0.027618	-0.071534	0.84276	0.30957	-0.056213	0.33521	-5.269356	7.052407	-115.7227	2.9414	0.96387	0.37036	24.80742	121.0241	41.93736	-3.38672	-1.10547	41.9374	-63	5.75
20:50:33:15	0	-0.57219	-0.0089795	-0.081024	0.81606	0.084778	-0.16895	0.23376	-7.046433	6.16414	-110.3068	-0.74561	-1.0361	-0.092468	24.80741	121.0241	41.98697	-3.30273	-1.55371	41.987	-60	6.25
20:50:33:46	0	-0.60656	-0.011469	-0.084831	0.79042	0.044098	-0.21204	0.30835	-6.954504	6.952203	-105.4188	4.5898	-2.8105	-0.59668	24.8074	121.0241	42.01535	-3.25391	-1.93164	42.0154	-63	6
20:50:33:77	0	-0.64719	-0.01956	-0.085056	0.75732	0.10999	0.013794	0.33228	-6.00047	8.03167	-99.3884	0.95654	-0.26416	-0.31812	24.80739	121.0241	42.03316	-3.16211	-2.38086	42.0332	-62	6
20:50:34:08	0	-0.68339	-0.0056758	-0.090012	0.72446	-0.34277	-0.34131	0.32764	-7.10759	7.5418	-93.8115	2.6328	-3.6973	0.95996	24.80738	121.0241	42.05191	-2.95117	-2.72461	42.0519	-66	5.25
20:50:34:39	0	-0.71853	-0.0093882	-0.086781	0.69	0.18091	-0.21729	0.31006	-6.15904	7.91275	-88.1061	1.1992	-1.3457	-1.9902	24.80737	121.0241	42.09898	-2.84375	-3.11914	42.099	-74	0.25
20:50:34:70	0	-0.75376	0.00053784	-0.084167	0.65173	0.15576	-0.038574	0.29858	-6.39662	7.24911	-82.1013	1.9629	-2.9629	-0.36206	24.80736	121.0241	42.13353	-2.66406	-3.60938	42.1335	-67	4.75
20:50:35:01	0	-0.7811	0.002591	-0.074277	0.61997	-0.49365	-0.16125	0.2251	-5.55287	6.47807	-77.1933	0.32275	-2.0898	-3.2617	24.80735	121.0241	42.18931	-2.27539	-3.79297	42.1893	-71	2.75
20:50:35:32	0	-0.79963	-0.0067593	-0.074104	0.59586	0.62256	0.084595	0.17065	-4.48108	7.27125	-73.6698	-1.3574	-0.6123	-2.1113	24.80734	121.0241	42.24616	-2.18164	-4.24219	42.2462	-67	4.5
20:50:35:64	0	-0.82083	0.0023748	-0.079573	0.5656	-0.89502	-0.33032	0.27197	-5.43348	7.35093	-69.4873	3.3711	-2.2266	2.1934	24.80733	121.0241	42.27654	-1.66016	-4.16797	42.2765	-60	6.25
20:50:35:95	0	-0.8433	-0.0076558	-0.073929	0.53228	0.65771	-0.035004	0.26294	-3.806	7.63366	-64.7735	3.5059	2.4844	-0.19568	24.80731	121.0241	42.32847	-1.5459	-4.49609	42.3285	-63	5.75
20:50:36:26	0	-0.86678	0.013509	-0.06783	0.49387	-0.099731	-0.2688	0.22827	-5.216	5.98364	-59.619	-0.9873	-1.6309	0.17603	24.8073	121.0241	42.35734	-1.11719	-4.51172	42.3573	-68	4.5
20:50:36:57	0	-0.88229	0.00038511	-0.048299	0.46822	0.18518	-0.064697	0.10809	-2.64082	4.8684	-56.0203	-0.98242	0.51074	-1.5654	24.80729	121.0241	42.40769	-0.800781	-4.60156	42.4077	-58	6
20:50:36:88	0	-0.8901	0.0081053	-0.046199	0.45334	-0.10187	0.049469	0.087708	-3.23752	4.2952	-54.1016	-3.2402	-1.1279	0.64209	24.80728	121.0241	42.44089	-0.55957	-4.57813	42.4409	-62	6.25
20:50:37:19	0	-0.89814	0.00024307	-0.039402	0.43793	0.11133	0.0063362	0.10492	-2.00777	4.04644	-52.0583	2.5156	1.873	0.2666	24.80726	121.0241	42.4875	-0.376709	-4.54688	42.4875	-57	6
20:50:37:50	0	-0.90621	0.0029275	-0.026239	0.422	-0.28369	-0.24707	0.10602	-1.57464	2.58404	-49.9758	0.42261	-1.2402	1.1543	24.80725	121.0241	42.46646	-0.166748	-4.32031	42.4665	-63	6.25
20:50:37:81	0	-0.90833	-0.00088232	-0.020984	0.41773	-0.0025787	0.0054092	0.022858	-0.913347	2.2269	-49.4125	0.46655	-0.071716	0.9209	24.80724	121.0241	42.49441	-0.0172272	-4.25	42.4944	-57	6.75
20:50:38:12	0	-0.9081	0.001005	-0.022857	0.41814	-0.15295	0.032532	-0.0039825	-1.20084	2.33098	-49.4721	-2.6758	-2.5781	-0.53857	24.80723	121.0241	42.50084	0.0609741	-4.17969	42.5008	-58	6
20:50:38:44	0	-0.90874	-0.0039412	-0.024138	0.41665	-0.18396	-0.075073	0.053772	-0.742899	2.70274	-49.2803	0.64746	0.86816	1.3242	24.80722	121.0241	42.50676	0.109619	-4.00781	42.5068	-54	6
20:50:38:75	0	-0.9098	0.0013446	-0.032866	0.41374	0.034607	0.1825	0.029388	-1.7016	3.36469	-48.9583	-1.7412	-1.0947	-0.38306	24.80721	121.0241	42.48923	0.226196	-3.94922	42.4892	-53	6.25
20:50:39:06	0	-0.91362	0.0015503	-0.032146	0.40529	-0.093506	-0.067017	0.065125	-1.65824	3.29534	-47.8924	0.79199	0.71045	-0.83301	24.80721	121.0241	42.47978	0.310547	-3.82422	42.4798	-52	6.25
20:50:39:37	0	-0.92073	-0.002995	-0.022571	0.38954	0.14075	0.006546	0.12549	-0.692225	2.51595	-45.8794	0.16138	1.1348	-1.7842	24.8072	121.0241	42.48055	0.338623	-3.73438	42.4806	-51	6.75
20:50:39:68	0	-0.92195	-0.0049786	-0.011922	0.38708	0.18286	0.016891	-0.073059	-0.0028581	1.48057	-45.5505	0.006752	1.2012	-0.18713	24.80719	121.0241	42.47781	0.466064	-3.66016	42.4778	-52	6.75
20:50:39:99	0	-0.916	-8.14E-05	-0.021792	0.40058	0.045288	0.20325	-0.066895	-0.992636	2.29179	-47.2608	-3.207	-0.74023	0.31958	24.80718	121.0241	42.46314	0.495361	-3.56055	42.4631	-51	6.5
20:50:40:30	0	-0.91326	-0.0094653	-0.027904	0.40631	-0.031525	0.066467	-0.06842	-0.309211	3.36289	-47.9782	-0.70166	1.3418	-0.93457	24.80717	121.0242	42.43682	0.541504	-3.42188	42.4368	-53	6
20:50:40:61	0	-0.91291	-0.0018121	-0.039419	0.40625	0.18958	-0.015137	0.032471	-1.65017	4.21185	-48.0388	1.0908	3.959	-2.6289	24.80716	121.0242	42.41009	0.558105	-3.33203	42.4101	-52	7
20:50:40:92	0	-0.91871	0.019519	-0.053094	0.39085	-0.5	-0.12756	0.17676	-4.45246	4.72064	-46.2766	0.32251	-0.86084	0.5708	24.80716	121.0242	42.38866	0.753418	-3.13672	42.3887	-45	6.25
20:50:41:23	0	-0.93463	0.018807	-0.055858	0.35071	0.17126	0.046722	0.39087	-4.2809	5.23389	-41.3326	0.56836	2.4609	-2.2109	24.80715	121.0242	42.36523	0.808594	-3.05273	42.3652	-44	6.5
20:50:41:55	0	-0.95493	0.022387	-0.037292	0.29363	-0.073181	0.030457	0.2959	-3.71339	3.32929	-34.2923	-0.025787	-1.8525	1.3477	24.80714	121.0242	42.34134	1.10449	-2.96094	42.3413	-43	6
20:50:41:86	0	-0.96551	0.008999	-0.027288	0.25876	0.065796	-0.047913	0.23242	-1.80717	2.7533	-30.0495	0.98096	1.6006	-0.37671	24.80714	121.0242	42.32794	1.24219	-2.56445	42.3279	-45	7
20:50:42:17	0	-0.97116	0.0010156	-0.018375	0.2377	-0.31006	-0.28784	0.1192	-0.613927	2.01765	-27.5177	1.1289	4.1172	0.006237	24.80713	121.0242	42.32749	1.23828	-2.01563	42.3275	-62	6
20:50:42:48	0	-0.97465	-0.0022038	-0.0091984	0.22353	0.27246	-0.036072	0.098328	0.0105187	1.08385	-25.8343	-0.89063	-0.39722	2.6895	24.80713	121.0242	42.30551	1.18457	-1.59863	42.3055	-44	6.25
20:50:42:79	0	-0.97709	-0.0070612	0.0056235	0.21266	-0.01136	-0.087402	0.010292	0.927716	-0.45757	-24.5608	0.35645	-0.36816	-0.8335	24.80713	121.0242	42.24449	1.09668	-0.911133	42.2445	-42	2.5
20:50:43:10	0	-0.97791	-0.0055717	0.0045238	0.2089	-0.049927	-0.021973	0.0058441	0.732692	-0.373559	-24.119	0.34644	-0.28003	-0.10345	24.80713	121.0242	42.19415	1.0752	-0.499512	42.1941	-41	6.5
20:50:43:41	0	-0.97822	0.0012554	-0.0065803	0.20745	-0.11639	0.054382	-0.0045433	-0.297175	0.707795	-23.9488	-0.31274	-0.25195	-0.14136	24.80713	121.0242	42.18872	1.03125	-0.297607	42.1887	-41	7
20:50:43:72	0	-0.97838	0.0065554	-0.011398	0.20641	-0.035339	-0.017502	-0.0076332	-1.0048	1.12293	-23.8361	0.0035267	1.3389	-0.45703	24.80713	121.0242	42.17385	0.9375	-0.257813	42.1739	-41	6.75
20:50:44:03	0	-0.97877	0.0044174	-0.0090615	0.2047	-0.052216	-0.036682	0.002285	-0.708118	0.912752	-23.6305	1.001	-0.42529	1.1436	24.80713	121.0242	42.13465	0.821777	-0.272949	42.1346	-41	6.5
20:50:44:34	0	-0.97887	0.0039967	-0.0084719	0.20426	-0.028763	0.020096	0.0038891	-0.646687	0.856784	-23.5777	-0.85693	-0.82422	-0.023956	24.80713	121.0242	42.11714	0.816406	-0.256836	42.1171	-41	6.75
20:50:44:66	0	-0.97897	0.0050279	-0.0075357	0.20379	-0.014954	-0.01709	0.016602	-0.740096	0.727978	-23.5229	0.039917	0.58838	0.54785	24.80713	121.0242	42.08223	0.788574	-0.234375	42.0822	-40	6.75
20:50:44:97	0	-0.97903	0.0049183	-0.0070955	0.20354	0.014404	-0.024185	0.0011311	-0.717339	0.681339	-23.4932	-0.28784	0.16028	-1.0801	24.80713	121.0242	42.06495	0.782715	-0.223022	42.065	-41	7
20:50:45:28	0	-0.97919	0.0036671	-0.0075338	0.20275	0.0055199	0.025833	0.0062675	-0.586574	0.760167	-23.4008	-0.15601	0.95166	-0.45996	24.80713	121.0242	42.05367	0.728027	-0.202759	42.0537	-40	6.75
20:50:45:59	0	-0.9792	0.004013	-0.0073178	0.20271	0.021179	-0.0047073	-0.0013943	-0.620338	0.727925	-23.3955	0.16223	-0.2356	-0.68359	24.80713	121.0242	42.03675	0.712402	-0.202637	42.0368	-40	6.25
20:50:45:90	0	-0.97923	0.0047879	-0.0063015	0.2026	-0.01384	-0.020538	0.0042152	-0.683607	0.595957	-23.3826	0.25464	-1.0557	0.030777	24.80713	121.0242	42.01823	0.69873	-0.196167	42.0182	-40	7.25
20:50:46:21	0	-0.97926	0.0039917	-0.0066369	0.20247	0.001379	0.0074997	0.012047	-0.601966	0.652159	-23.3671	-0.60449	0.2196	0.66211	24.80713	121.0242	41.999	0.663574	-0.174561	41.999	-40	7
20:50:46:52	0	-0.9794	0.0024912	-0.0044198	0.20187	0.0039005	-0.01255	0.0025635	-0.381842	0.438417	-23.2947	-1.0859	-0.4126	0.73193	24.80713	121.0242	41.96135	0.605469	-0.153564	41.9613	-39	5.75
20:50:46:83	0	-0.97944	0.0024235	-0.0028517	0.20171	0.017242	-0.028137	0.016083	-0.337921	0.264043	-23.2751	-0.14734	-0.027161	-0.73633	24.80713	121.0242	41.93771	0.591309	-0.151245	41.9377	-41	6.75
20:50:47:14	0	-0.97947	0.002459	-0.0022118	0.20156	0.024719	0.010254	0.00089979	-0.327088	0.191456	-23.2567	-0.016098	0.064697	0.041534	24.80713	121.0242	41.90826	0.567871	-0.132935	41.9083	-40	6.75
20:50:47:46	0	-0.97953	0.0023008	-0.0027155	0.20129	0.038116	0.008728	-0.0095291	-0.32089	0.251732	-23.2254	-0.70459	-1.4287	1.0303	24.80713	121.0242	41.88812	0.529297	-0.125	41.8881	-40	6.5
20:50:47:76	0	-0.9796	0.0023358	-0.0022996	0.20094	0.0069695	0.0037594	-0.013123	-0.315157	0.204357	-23.1843	0.20703	-1.1846	0.20813	24.80713	121.0242	41.84745	0.476563	-0.111694	41.8475	-39	6
20:50:48:08	0	-0.9796	0.0019587	-0.0024471	0.20093	0.012505	0.016235	-0.0056648	-0.276219	0.229597	-23.1832	-0.34644	-0.12439	1.998	24.80713	121.0242	41.84149	0.453125	-0.0997314	41.8415	-39	6.25
20:50:48:39	0	-0.9796	0.0018594	-0.0014065	0.20093	0.0069885	-0.010994	0.010391	-0.241109	0.115075	-23.183	0.059296	0.64502	0.40405	24.80713	121.0242	41.84885	0.429443	-0.0922241	41.8488	-39	6
20:50:48:70	0	-0.97962	0.00092894	-0.00044709	0.20086	0.027054	0.0017157	0.0088806	-0.11457	0.0288081	-23.1741	-0.81885	0.47607	2.1816	24.80713	121.0242	41.84105	0.400146	-0.0812988	41.8411	-39	5.75
20:50:49:01	0	-0.97964	0.00082432	0.001201	0.20075	-0.048523	0.0051994	-0.0050888	-0.0649108	-0.153783	-23.1611	0.33179	1.0859	-1.21	24.80713	121.0242	41.80933	0.373047	-0.0668335	41.8093	-40	6.25
20:50:49:32	0	-0.9796	0.00029197	0.00051128	0.20095	-0.010071	0.0076866	0.004467	-0.0210016	-0.0641159	-23.1846	0.095703	-0.39526	-0.79004	24.80713	121.0242	41.82015	0.356689	-0.0621033	41.8201	-38	6.25
20:50:49:63	0	-0.97957	0.00069503	0.0010143	0.20109	0.03653	0.0066566	-0.0041885	-0.0546467	-0.129869	-23.2009	-0.083069	-0.33618	0.67041	24.80713	121.0242	41.82868	0.342773	-0.0679932	41.8287	-38	6
20:50:49:94	0	-0.97956	-8.32E-05	0.00246	0.20114	0.050842	0.011429	-0.01889	0.0660378	-0.274216	-23.2074	-0.060638	-0.60449	1.2188	24.80713	121.0242	41.82612	0.297852	-0.0602417	41.8261	-40	6
20:50:50:25	0	-0.97954	-0.0010288	0.0055123	0.20118	0.014534	0.008194	0.011398	0.242571	-0.595034	-23.2133	0.12103	0.69482	0.49268	24.80713	121.0242	41.81263	0.287109	-0.0489807	41.8126	-40	6.5
20:50:50:57	0	-0.97953	-0.00020319	0.0024478	0.20128	0.01857	0.025299	0.00077248	0.0792659	-0.270064	-23.224	-0.88086	-0.12292	1.8672	24.80713	121.0242	41.8281	0.265137	-0.0458984	41.8281	-40	6.25
20:50:50:88	0	-0.97946	0.00026971	0.0032354	0.20163	4.01E-05	-0.0044518	-0.0091705	0.0444834	-0.369362	-23.2652	0.0071678	-0.86719	0.51709	24.80713	121.0242	41.83026	0.236816	-0.0474854	41.8303	-40	6.75
20:50:51:19	0	-0.9794	-0.0013009	0.0036598	0.20188	0.058899	0.036377	-0.0017853	0.230676	-0.380646	-23.2947	0.094971	0.28198	-0.46118	24.80713	121.0242	41.83428	0.209717	-0.0431519	41.8343	-40	7
20:50:51:50	0	-0.97941	-0.0010374	0.0058852	0.2018	-0.045532	-0.012123	0.0037518	0.252541	-0.636535	-23.2866	0.7666	-0.45044	0.78857	24.80713	121.0242	41.83412	0.19873	-0.0501709	41.8341	-40	6.5
20:50:51:81	0	-0.97931	-0.0022518	0.0075811	0.20221	0.0058823	0.0040207	0.01268	0.428403	-0.798605	-23.3357	-0.58936	0.018921	0.46924	24.80713	121.0242	41.83061	0.175781	-0.0363159	41.8306	-40	7.5
20:50:52:12	0	-0.97931	-0.0011869	0.0060157	0.20227	-0.06311	0.008667	-0.00088739	0.272651	-0.647594	-23.3419	0.39746	0.19226	1.6914	24.80713	121.0242	41.83683	0.183716	-0.0271759	41.8368	-41	6.75
20:50:52:43	0	-0.97928	0.00021238	0.0035357	0.20247	0.013344	0.016068	-0.010696	0.0582	-0.401698	-23.3628	-0.26245	-0.99707	0.46411	24.80713	121.0242	41.848	0.151123	-0.0331116	41.848	-41	6.5
20:50:52:74	0	-0.97928	-2.92E-05	0.0032963	0.20247	0.027771	0.044067	-0.00091934	0.0797626	-0.369228	-23.3637	-0.071045	0.37183	-0.3728	24.80713	121.0242	41.84681	0.111145	-0.0214081	41.8468	-41	1.25
20:50:53:05	0	-0.9792	-1.03E-06	0.0042581	0.20284	-0.065308	-0.02179	-0.0039253	0.0990914	-0.477777	-23.4064	0.57861	-0.3147	1.8994	24.80713	121.0242	41.85164	0.095459	-0.0321045	41.8516	-37	-0.75
20:50:53:36	0	-0.97913	-0.00021723	0.0047686	0.20319	0.0090256	0.010048	0.020386	0.135413	-0.529988	-23.4485	-0.5166	0.31958	0.18469	24.80713	121.0242	41.84631	0.0848999	-0.0276031	41.8463	-40	-0.25
20:50:53:67	0	-0.97913	-0.00012843	0.0043601	0.20321	-0.047241	-0.006588	-0.002161	0.115945	-0.486221	-23.4501	0.74854	-0.20801	1.2646	24.80713	121.0242	41.83634	0.0682373	-0.0311432	41.8363	-36	-1
20:50:53:98	0	-0.9791	0.00037089	0.0043767	0.20335	-0.026886	0.0092316	8.11E-05	0.0603763	-0.499702	-23.4661	-0.19348	1.5313	-1.9463	24.80713	121.0242	41.83995	0.0491943	-0.0152435	41.84	-41	5.5
20:50:54:30	0	-0.97905	-0.00020694	0.0034562	0.20359	-0.027817	0.016357	0.00014031	0.103852	-0.382926	-23.4949	-0.47021	-0.89209	-0.86523	24.80713	121.0242	41.84043	0.0294647	-0.0262299	41.8404	-45	6.25
20:50:54:61	0	-0.97899	-4.52E-05	0.0040359	0.20388	0.0041084	-0.0021038	0.016479	0.0993664	-0.451707	-23.5282	-0.41357	1.1094	0.25073	24.80713	121.0242	41.83646	0.0104065	-0.0244904	41.8365	-46	6
20:50:54:92	0	-0.97897	-0.0003056	0.0043957	0.20395	0.011017	0.010971	-0.0023136	0.137021	-0.485986	-23.537	-0.26978	0.42603	2.1719	24.80713	121.0242	41.83623	-0.00372696	-0.0265503	41.8362	-44	6.25
20:50:55:23	0	-0.9789	-9.99E-05	0.0049286	0.20426	-0.018967	0.011795	-0.0053749	0.126572	-0.55053	-23.5732	-0.44849	1.3936	-1.8086	24.80713	121.0242	41.81379	-0.0179901	-0.020813	41.8138	-44	5.5
20:50:55:54	0	-0.97886	-0.00076348	0.0045472	0.20448	0.01152	0.051697	-0.0049171	0.192194	-0.492167	-23.5994	-0.19678	0.20203	-0.67676	24.80713	121.0242	41.7912	-0.0263519	-0.022644	41.7912	-44	6
20:50:55:85	0	-0.97881	-0.0002069	0.0046253	0.2047	0.033539	-0.026672	-0.004837	0.131706	-0.513945	-23.6244	-0.24048	-0.5415	-0.49316	24.80713	121.0242	41.77424	-0.0388489	-0.0353699	41.7742	-43	6.5
20:50:56:16	0	-0.97876	-0.0014406	0.0055237	0.20491	0.00073242	-0.0042343	0.016068	0.291293	-0.585708	-23.6501	0.896	0.6084	-0.95801	24.80713	121.0242	41.76484	-0.0580444	-0.0272064	41.7648	-42	5.75
20:50:56:47	0	-0.97876	-0.0012735	0.0072755	0.20488	-0.018677	-0.00634	-0.0040703	0.313673	-0.786129	-23.6473	-0.48901	1.458	-1.4521	24.80713	121.0242	41.76403	-0.0626831	-0.0183868	41.764	-41	6.75
20:50:56:78	0	-0.97873	-0.0018029	0.0070327	0.20502	0.015602	0.037506	0.0097122	0.367457	-0.746408	-23.6648	-0.50293	0.71338	-0.36108	24.80713	121.0242	41.7703	-0.0740356	-0.0205994	41.7703	-41	6.5
20:50:57:09	0	-0.97867	-0.0017051	0.0070405	0.20532	-0.020203	0.0099258	-0.0071297	0.356906	-0.749475	-23.6997	0.1637	0.44922	2.2734	24.80713	121.0242	41.76903	-0.0732422	-0.0262299	41.769	-40	6.5
20:50:57:40	0	-0.97859	-0.00080918	0.0061453	0.20572	0.0289	0.0017424	-0.0080566	0.235628	-0.670065	-23.7456	0.40381	-0.85449	0.27759	24.80713	121.0242	41.75863	-0.0800781	-0.031311	41.7586	-41	7
20:50:57:71	0	-0.97858	-0.0014047	0.0056209	0.20579	0.022476	-0.018814	0.015465	0.290087	-0.597193	-23.7529	-0.68945	-0.63086	0.7627	24.80713	121.0242	41.7706	-0.102844	-0.0355225	41.7706	-41	6.25
20:50:58:03	0	-0.9785	-0.0012726	0.0063851	0.20614	-0.02713	0.0003562	-0.0077362	0.293546	-0.685901	-23.795	0.15369	-0.34302	0.020905	24.80713	121.0242	41.79973	-0.112427	-0.0336304	41.7997	-42	7
20:50:58:33	0	-0.97847	-0.001567	0.0057908	0.20631	-0.0082245	0.020889	-0.0031185	0.312615	-0.612258	-23.8143	0.010468	0.21106	2.0273	24.80713	121.0242	41.80481	-0.114258	-0.0328064	41.8048	-41	6.5
20:50:58:65	0	-0.97842	-0.00097046	0.0056084	0.20655	0.027313	0.000525	-0.0094833	0.241565	-0.605847	-23.8421	-0.0019989	-0.62256	0.016891	24.80713	121.0242	41.79981	-0.125244	-0.0362244	41.7998	-41	6.75
20:50:58:96	0	-0.97839	-0.0013096	0.0049951	0.20669	0.036957	0.0066071	-0.0018072	0.265144	-0.529021	-23.8586	-1.0127	-0.73193	0.46045	24.80713	121.0242	41.80807	-0.141357	-0.0404968	41.8081	-42	6
20:50:59:27	0	-0.97833	-0.00096697	0.0052461	0.20699	-0.021118	0.0098572	-0.018143	0.232852	-0.565201	-23.8939	0.23291	-1.0283	-0.47656	24.80713	121.0242	41.7985	-0.142212	-0.0449219	41.7985	-41	5.25
20:50:59:58	0	-0.97834	-0.0008545	0.0045094	0.20696	-0.0242	0.014992	0.00058746	0.202747	-0.485284	-23.8892	0.26978	-0.29395	-1.2334	24.80713	121.0242	41.80239	-0.152344	-0.039856	41.8024	-42	5.75
20:50:59:89	0	-0.97829	-0.00020243	0.0050506	0.20719	0.028931	-0.028229	0.0036507	0.142612	-0.561398	-23.9161	-0.69385	0.86426	-1.2471	24.80713	121.0242	41.78029	-0.164185	-0.0447388	41.7803	-41	6.75
20:51:00:20	0	-0.97825	-0.00039699	0.0043541	0.20737	0.022293	0.04657	0.0079422	0.147974	-0.478666	-23.9372	-0.11407	0.65625	-0.44897	24.80713	121.0242	41.80065	-0.169312	-0.0405884	41.8006	-42	6.75
20:51:00:51	0	-0.97821	-0.00038761	0.0045643	0.20757	-0.021698	0.003088	-0.0080795	0.152021	-0.502425	-23.9607	0.096924	0.1488	2.1621	24.80713	121.0242	41.83477	-0.175781	-0.0478516	41.8348	-41	7
20:51:00:82	0	-0.97813	-0.00041138	0.0047124	0.20792	0.0062256	-0.00050592	-0.012054	0.158396	-0.518404	-24.0023	0.10858	-1.0479	0.020096	24.80713	121.0242	41.83703	-0.182617	-0.0539856	41.837	-41	6.5
20:51:01:14	0	-0.97812	-0.0006616	0.0044524	0.20799	-0.0074463	0.0069427	0.0061035	0.180281	-0.483278	-24.0105	0.25903	0.58252	2.2383	24.80713	121.0242	41.85159	-0.188354	-0.0523376	41.8516	-40	6.25
20:51:01:45	0	-0.97807	-0.00077846	0.0048567	0.2082	0.03952	0.038452	0.010086	0.203127	-0.52577	-24.0345	0.063843	0.32471	-0.46338	24.80713	121.0242	41.83134	-0.19873	-0.0548706	41.8313	-41	6.75
20:51:01:76	0	-0.97804	-0.00050427	0.005178	0.20834	0.0028343	-0.026718	0.0052376	0.180147	-0.568294	-24.0519	0.03479	-0.7168	0.22119	24.80713	121.0242	41.8081	-0.189941	-0.0661621	41.8081	-41	6.25
20:51:02:07	0	-0.97801	-0.00037041	0.0038184	0.20851	0.026154	0.043091	0.0024529	0.132752	-0.41909	-24.0711	0.4082	0.78125	-0.58984	24.80713	121.0242	41.80537	-0.189087	-0.0490417	41.8054	-41	6.75
20:51:02:38	0	-0.97795	0.00072616	0.0030289	0.20879	0.014412	-0.039734	0.011414	-0.00890718	-0.356813	-24.1036	-0.29126	0.29443	-0.48853	24.80713	121.0242	41.82914	-0.202148	-0.0601501	41.8291	-38	6.25
20:51:02:69	0	-0.97793	-0.00067638	0.0035978	0.20892	-0.0019741	0.04483	-0.0098877	0.161934	-0.386988	-24.1192	-0.21948	0.26685	-0.77441	24.80713	121.0242	41.81374	-0.215576	-0.06073	41.8137	-40	6.75
20:51:03:00	0	-0.97788	-0.00090765	0.0049846	0.2091	0.0088959	-0.0042191	-0.0029793	0.221157	-0.536821	-24.1409	-0.16687	1.2012	-1.417	24.80713	121.0242	41.81581	-0.19873	-0.0639038	41.8158	-42	7
20:51:03:31	0	-0.97785	-0.0013308	0.0050283	0.20924	0.055786	0.016571	0.0043411	0.269694	-0.531538	-24.1575	-0.65771	-0.69678	1.5234	24.80713	121.0242	41.82555	-0.205444	-0.0735474	41.8255	-41	6.75
20:51:03:62	0	-0.97783	-0.00030322	0.004489	0.20935	0.019394	0.010719	-0.007843	0.141671	-0.495732	-24.1691	-0.25293	-0.85352	0.72607	24.80713	121.0242	41.81992	-0.196899	-0.0737915	41.8199	-42	5.75
20:51:03:93	0	-0.97781	-0.000299	0.0032416	0.20946	0.0090332	0.027328	-0.0012569	0.111311	-0.356047	-24.1817	0.73779	0.26367	-0.96338	24.80714	121.0242	41.82465	-0.194214	-0.0631104	41.8246	-41	5.75
20:51:04:25	0	-0.97777	0.00014378	0.0037178	0.20965	0.019318	-0.027863	0.00089741	0.0732091	-0.420012	-24.2044	-0.64209	0.9834	-1.4404	24.80714	121.0242	41.81955	-0.197876	-0.0646973	41.8196	-41	4.25
20:51:04:56	0	-0.97773	-0.00036889	0.0039656	0.20981	0.0046768	0.027817	0.0068741	0.13668	-0.435446	-24.2236	-0.57666	0.41992	0.49658	24.80714	121.0242	41.81931	-0.202271	-0.071228	41.8193	-41	3.5
20:51:04:87	0	-0.9777	-0.0004588	0.0041482	0.20997	0.035095	-0.024048	0.0034695	0.151217	-0.453708	-24.2425	-0.24353	0.75244	-0.67188	24.80714	121.0242	41.82858	-0.19165	-0.0705566	41.8286	-42	4.5
20:51:05:18	0	-0.97767	-0.00055533	0.0036842	0.21011	0.047546	0.014572	-0.0067673	0.15092	-0.39938	-24.2578	-0.68066	-0.82764	1.2363	24.80714	121.0242	41.84287	-0.196533	-0.0733643	41.8429	-42	5.5
20:51:05:49	0	-0.97762	-5.46E-05	0.003396	0.21035	-0.00022006	-0.0083618	0.016434	0.0879832	-0.379132	-24.2862	0.22815	0.55127	0.4353	24.80714	121.0242	41.85032	-0.17334	-0.0637207	41.8503	-42	4.75
20:51:05:80	0	-0.97761	-0.00011007	0.0024777	0.21043	-0.017258	-0.019241	0.0045242	0.0720761	-0.274909	-24.2953	-0.66064	-0.39771	-0.07605	24.80714	121.0242	41.8409	-0.195068	-0.0727539	41.8409	-40	1.25
20:51:06:11	0	-0.97758	-0.00063623	0.0037213	0.21052	-0.024811	-0.015991	-0.016983	0.161047	-0.401529	-24.3058	0.31836	-0.93213	0.28882	24.80714	121.0242	41.85396	-0.193481	-0.0819702	41.854	-41	0.5
20:51:06:42	0	-0.97752	-0.00059669	0.004391	0.21078	0.02681	0.028732	-0.018097	0.172903	-0.477459	-24.3369	-0.17334	-1.0781	0.30688	24.80714	121.0242	41.86112	-0.187134	-0.0794678	41.8611	-42	6.5
20:51:06:73	0	-0.97752	-8.85E-05	0.0028639	0.21081	0.024857	0.044312	-0.013496	0.0791037	-0.318664	-24.3402	0.88623	-0.36499	-1.042	24.80714	121.0242	41.87217	-0.176758	-0.0681763	41.8722	-41	6.5
20:51:07:05	0	-0.97748	0.00056265	0.0026334	0.21102	-0.052734	0.0060768	-0.0072708	0.000656335	-0.308573	-24.3649	-0.13611	-0.37891	-0.44409	24.80714	121.0242	41.87249	-0.181152	-0.0715332	41.8725	-41	6.5
20:51:07:35	0	-0.97747	0.00015692	0.0023264	0.21108	0.024719	0.0098038	-0.0067749	0.0386965	-0.264376	-24.3719	-1.0205	-1.0361	1.0371	24.80714	121.0242	41.88025	-0.192627	-0.078064	41.8802	-41	6.75
20:51:07:67	0	-0.97738	0.00040627	0.0025103	0.21149	0.018219	0.0002799	-0.0066109	0.015335	-0.290998	-24.4192	0.066284	-1.1719	0.36841	24.80714	121.0242	41.89606	-0.185547	-0.0841675	41.8961	-41	7.25
20:51:07:98	0	-0.97738	0.00028307	0.0018605	0.21151	0.040771	0.012886	0.0018644	0.0133897	-0.215238	-24.4212	-0.63086	-0.36572	1.8584	24.80714	121.0242	41.91179	-0.184082	-0.0773315	41.9118	-40	7
20:51:08:29	0	-0.97735	0.00063298	0.0023274	0.21163	0.0022526	0.001236	-0.00084066	-0.0144493	-0.276009	-24.4357	-0.24011	1.1768	-1.3809	24.80714	121.0242	41.91551	-0.181396	-0.072876	41.9155	-41	6.5
20:51:08:60	0	-0.9773	0.00053865	0.0018453	0.21185	0.011528	0.018448	0.015175	-0.015526	-0.219738	-24.4617	-0.13916	0.66406	0.47412	24.80714	121.0242	41.9198	-0.183105	-0.0789185	41.9198	-41	6.5
20:51:08:91	0	-0.97728	0.00071676	0.001598	0.21195	0.034302	-0.0051155	0.0046883	-0.0414583	-0.196364	-24.473	-0.40039	-0.14026	2.1914	24.80714	121.0242	41.92121	-0.181519	-0.0812378	41.9212	-41	7
20:51:09:22	0	-0.97725	0.00076148	0.0025358	0.21206	-0.037292	-0.0090408	0.002449	-0.0236543	-0.302479	-24.4861	0.26147	-0.34668	0.59863	24.80714	121.0242	41.9446	-0.175171	-0.0765381	41.9446	-40	6.5
20:51:09:53	0	-0.97725	0.00054527	0.001937	0.21209	-0.026505	0.016693	0.0047989	-0.0139865	-0.230163	-24.4897	0.38135	0.0073586	-1.126	24.80714	121.0242	41.96086	-0.172241	-0.0736084	41.9609	-40	7
20:51:09:84	0	-0.97718	0.0010166	0.0017126	0.21243	0.0298	-0.027481	0.00055313	-0.0721445	-0.216521	-24.5291	-0.38208	0.087524	-0.81445	24.80714	121.0242	41.96427	-0.166748	-0.0805054	41.9643	-41	6.5
20:51:10:16	0	-0.97715	0.00065101	0.0010966	0.21257	0.019836	0.040283	0.015289	-0.0461841	-0.138646	-24.5456	-0.55908	0.10028	0.27637	24.80714	121.0242	41.96439	-0.175537	-0.0822144	41.9644	-41	7.5
20:51:10:46	0	-0.97714	0.0010937	0.0021027	0.21261	0.030777	-0.035095	-0.0027771	-0.0712328	-0.262084	-24.5501	-0.29443	0.99854	-1.3213	24.80714	121.0242	42.00191	-0.166748	-0.074585	42.0019	-40	7
20:51:10:78	0	-0.9771	0.0010372	0.00091777	0.21277	0.0029354	0.047668	0.015869	-0.0937535	-0.128049	-24.5691	-0.4624	0.646	-0.17932	24.80714	121.0242	42.01026	-0.156372	-0.0736084	42.0103	-40	6.75
20:51:11:09	0	-0.97707	0.0013786	0.00051814	0.2129	0.020691	-0.017868	0.0032024	-0.141715	-0.0916463	-24.5843	-0.875	-0.65332	1.1475	24.80714	121.0242	42.01636	-0.160522	-0.0825195	42.0164	-40	7
20:51:11:40	0	-0.97702	0.0018241	0.00015311	0.21312	0.022125	-0.033112	0.0068932	-0.200481	-0.0616886	-24.6103	-0.53809	-0.078186	-0.72705	24.80714	121.0242	42.01704	-0.164795	-0.0870972	42.017	-40	6.5
20:51:11:71	0	-0.97698	0.0014333	0.00043362	0.21334	0.0077858	0.019241	0.013199	-0.149866	-0.0835862	-24.6366	-0.078308	0.74756	0.27539	24.80714	121.0242	42.02037	-0.159058	-0.0808716	42.0204	-39	6
20:51:12:02	0	-0.97696	0.0011263	-2.09E-05	0.21344	0.0062981	-0.0092468	0.004425	-0.126605	-0.0252097	-24.6479	-0.46167	-0.854	-0.10052	24.80714	121.0242	42.01467	-0.154541	-0.083374	42.0147	-40	4.75
20:51:12:33	0	-0.9769	0.0013543	0.00049425	0.2137	-0.031677	0.0042	-0.011925	-0.139505	-0.0884934	-24.6783	0.16479	0.12915	-0.95947	24.80714	121.0242	41.99356	-0.148682	-0.0824585	41.9936	-42	7
20:51:12:64	0	-0.97686	0.001	9.92E-05	0.21386	-0.015007	0.00061321	0.0043602	-0.109515	-0.0356106	-24.6979	-0.029434	-0.63135	-0.99414	24.80714	121.0242	41.98692	-0.15332	-0.0860596	41.9869	-39	-0.5
20:51:12:95	0	-0.97681	0.00089873	0.0016801	0.21409	-0.04007	-0.024185	0.0018902	-0.0593817	-0.210109	-24.7242	0.34619	0.6543	-1.041	24.80714	121.0242	42.00153	-0.154419	-0.0877075	42.0015	-41	6
20:51:13:26	0	-0.97682	0.00056322	0.0014358	0.21404	0.019562	0.036896	0.0070305	-0.0278283	-0.174534	-24.7182	0.76416	0.66602	-0.84863	24.80714	121.0242	42.01482	-0.136597	-0.0748291	42.0148	-41	4
20:51:13:57	0	-0.97677	0.00078545	0.0013311	0.2143	-0.041473	-0.022415	-0.0041313	-0.0552262	-0.16828	-24.7491	0.76514	-0.93018	0.076538	24.80714	121.0242	42.00359	-0.132568	-0.0921021	42.0036	-41	6.5
20:51:13:89	0	-0.9767	0.0012011	0.00043346	0.2146	0.020279	0.02211	0.0076332	-0.123767	-0.0780491	-24.7841	-0.10065	0.19958	0.53223	24.80714	121.0242	41.9866	-0.133057	-0.083313	41.9866	-42	6.25
20:51:14:20	0	-0.9767	0.0015277	-0.00011075	0.21462	-0.011528	-0.0084229	0.00015795	-0.173705	-0.025176	-24.7864	0.087524	-0.3999	-1.0049	24.80714	121.0242	41.97809	-0.135498	-0.0859985	41.9781	-42	5.5
20:51:14:51	0	-0.97665	0.0022563	0.0002764	0.21483	0.036346	-0.035339	0.0048981	-0.245716	-0.0864785	-24.8107	-0.27881	1.335	-1.2119	24.80714	121.0242	41.99532	-0.133911	-0.0799561	41.9953	-41	7
20:51:14:82	0	-0.97662	0.0025678	-0.00053429	0.21495	0.011894	0.0071793	0.022797	-0.300531	-0.00345674	-24.8258	0.082825	0.52588	-0.34302	24.80714	121.0242	41.99635	-0.126709	-0.0834351	41.9963	-42	5.75
20:51:15:13	0	-0.97659	0.0020021	-0.0002152	0.21508	-0.0041199	0.020401	0.0073471	-0.229359	-0.025262	-24.8406	0.70605	0.60449	-0.7876	24.80714	121.0242	42.01319	-0.126465	-0.0795288	42.0132	-41	6.5
20:51:15:44	0	-0.9765	0.0016416	0.00071953	0.21552	0.051666	-0.0072899	-0.0053596	-0.165921	-0.121056	-24.8916	-0.1958	-0.271	-0.075378	24.80714	121.0242	42.00882	-0.126953	-0.0890503	42.0088	-40	6.5
20:51:15:75	0	-0.97648	0.00063344	0.0019699	0.21559	-0.046692	-0.0053482	-0.015854	-0.022215	-0.236071	-24.9	-0.45288	-1.6279	-0.979	24.80714	121.0242	42.04491	-0.136108	-0.0907593	42.0449	-39	5.75
20:51:16:06	0	-0.97648	-0.00015085	0.0030977	0.21559	-0.027328	-0.018936	0.0031567	0.0934118	-0.342901	-24.9012	-0.065735	-0.70313	0.52295	24.80714	121.0242	42.05259	-0.120056	-0.0921021	42.0526	-41	4
20:51:16:37	0	-0.97639	0.00063143	0.0025363	0.21598	0.02478	0.0068283	0.0023289	-0.00787636	-0.299405	-24.9464	-0.054352	-0.84326	0.64404	24.80714	121.0242	42.03777	-0.10022	-0.0866089	42.0378	-41	6.75
20:51:16:69	0	-0.97642	0.00051814	0.0013281	0.21587	-0.00086355	0.057343	-0.0048943	-0.0251198	-0.161423	-24.9333	-0.92334	0.73584	-0.38843	24.80714	121.0242	42.04542	-0.116821	-0.0830688	42.0454	-42	6.25
20:51:17:00	0	-0.97635	0.00098931	0.00046484	0.21621	-0.0090866	0.020721	-0.0070343	-0.0991685	-0.0765182	-24.973	0.78174	0.15173	-1.4922	24.80714	121.0242	42.05614	-0.104492	-0.0787354	42.0561	-41	6.25
20:51:17:31	0	-0.97629	0.00067312	0.0018525	0.21647	-0.00028348	-0.019104	-0.0046959	-0.029351	-0.223946	-25.0041	0.015717	-0.95752	-0.023285	24.80714	121.0242	42.04275	-0.110291	-0.0974121	42.0428	-41	6.75
20:51:17:62	0	-0.97625	0.00071985	0.001218	0.21664	0.012985	0.038666	0.0053902	-0.0502948	-0.154124	-25.023	-0.35059	0.41211	-0.70654	24.80714	121.0242	42.04376	-0.103027	-0.0826416	42.0438	-42	6.5
20:51:17:93	0	-0.97621	0.00026308	0.0025333	0.21681	0.009903	-0.0026207	-0.0014381	0.0335092	-0.28993	-25.0433	-0.18518	0.15381	2.332	24.80714	121.0242	42.04219	-0.105896	-0.0866699	42.0422	-40	6.5
20:51:18:24	0	-0.97624	0.00076184	0.0022893	0.21667	-0.05542	0.021194	-0.0061073	-0.0283859	-0.275023	-25.027	0.15588	0.99463	-1.1436	24.80714	121.0242	42.06551	-0.0865479	-0.0588684	42.0655	-40	6.25
20:51:18:55	0	-0.97612	0.00070201	0.001686	0.21723	-0.0079117	0.008873	0.0029087	-0.0365546	-0.206062	-25.093	0.33667	0.056549	-1.2441	24.80714	121.0242	42.05967	-0.0914307	-0.0725708	42.0597	-40	7.25
20:51:18:86	0	-0.97606	0.00076579	0.0034225	0.21749	-0.03241	-0.020615	-0.0099487	-0.00035599	-0.401883	-25.1232	-0.26563	0.70459	-1.1211	24.80714	121.0242	42.05838	-0.106873	-0.0756836	42.0584	-44	6.25
20:51:19:17	0	-0.97601	0.00019094	0.0032761	0.21772	-0.03125	0.0024166	-0.0036297	0.0603815	-0.371177	-25.1502	0.28931	-0.74756	-1.0498	24.80714	121.0242	42.05892	-0.0776367	-0.0769653	42.0589	-38	-0.5
20:51:19:49	0	-0.97596	0.001259	0.001248	0.21794	-0.016953	0.019974	0.0049782	-0.109641	-0.171016	-25.1757	-0.11035	0.73242	0.20142	24.80714	121.0242	42.06052	-0.0589905	-0.0675049	42.0605	-39	2.75
20:51:19:80	0	-0.97593	0.0023291	-0.0017536	0.21806	-0.0010738	0.024734	-0.00053215	-0.304295	0.137908	-25.1908	-0.4397	0.29541	1.8936	24.80714	121.0242	42.06377	-0.0686035	-0.0784302	42.0638	-44	6.25
20:51:20:10	0	-0.97589	0.0018598	0.00053563	0.21827	-0.033691	-0.0016365	-0.0011139	-0.194576	-0.106416	-25.2152	0.17578	0.87988	-1.6953	24.80714	121.0242	42.05295	-0.0908813	-0.0806885	42.053	-43	6
20:51:20:42	0	-0.97586	0.00054773	0.0020773	0.21838	0.017288	0.043915	0.0016317	-0.00926816	-0.245999	-25.2274	-0.27783	0.15515	-0.29639	24.80714	121.0242	42.04607	-0.0756226	-0.0805054	42.0461	-44	6.5
20:51:20:73	0	-0.97582	0.0012369	0.00087547	0.21858	-0.060547	0.0023441	-0.0025444	-0.116379	-0.128877	-25.2517	0.63379	-0.36255	1.3643	24.80714	121.0242	42.06865	-0.0487366	-0.0796509	42.0686	-44	6
20:51:21:04	0	-0.97576	0.002288	-0.00080959	0.21883	0.012207	0.012764	-0.013229	-0.27613	0.0331503	-25.2807	-0.19434	-1.0068	0.56494	24.80714	121.0242	42.06805	-0.055542	-0.0806885	42.068	-40	6
20:51:21:35	0	-0.97573	0.0016298	-0.0010107	0.21898	-0.013786	0.007225	-0.0056267	-0.207585	0.0721071	-25.2983	-0.69775	-1.4043	-0.55811	24.80714	121.0242	42.07102	-0.071228	-0.0897827	42.071	-42	6
20:51:21:66	0	-0.97569	0.0015104	0.00055073	0.21917	0.012321	-0.016968	0.0010529	-0.155036	-0.099507	-25.3199	0.04068	1.3379	-1.3613	24.80714	121.0242	42.0782	-0.0630493	-0.0755615	42.0782	-42	4.75
20:51:21:97	0	-0.97566	0.001004	0.00067185	0.21927	0.013954	0.024399	0.0054131	-0.0953685	-0.100342	-25.3321	0.75781	0.60645	-0.9165	24.80714	121.0242	42.08908	-0.0461731	-0.067627	42.0891	-42	6
20:51:22:28	0	-0.97563	0.0012665	0.00048362	0.21944	-0.0022812	0.0177	-0.00087881	-0.12943	-0.0859143	-25.3519	-0.13318	0.23767	1.876	24.80714	121.0242	42.09838	-0.0495911	-0.0737305	42.0984	-41	6.5
20:51:22:59	0	-0.97554	0.0014977	-0.00021568	0.2198	-0.072693	0.017029	-0.0037327	-0.172854	-0.0136107	-25.3942	-0.079529	0.11407	-1.3418	24.80714	121.0242	42.07795	-0.038269	-0.0758667	42.0779	-40	6.75
20:51:22:91	0	-0.97552	0.0020271	-0.0010467	0.21991	0.029953	-0.024307	0.0015936	-0.252977	0.0659251	-25.4081	-0.7002	-0.035217	0.048615	24.80714	121.0242	42.08861	-0.0499573	-0.0842896	42.0886	-42	6
20:51:23:22	0	-0.97549	0.0013968	-0.00077687	0.22005	0.010315	0.01049	0.011116	-0.175729	0.0516182	-25.4244	-0.79736	-1.0879	-0.0014172	24.80714	121.0242	42.09274	-0.0497742	-0.0855103	42.0927	-40	6.75
20:51:23:53	0	-0.97543	0.0023951	-0.0010411	0.22029	-0.03183	0.016708	0.0059357	-0.294	0.0559108	-25.4529	-0.22009	0.86377	-0.32227	24.80714	121.0242	42.08987	-0.031311	-0.0723877	42.0899	-40	6.75
20:51:23:83	0	-0.97537	0.0028636	-0.0027025	0.22054	-0.039856	-0.025711	0.0037727	-0.388366	0.229683	-25.4828	0.76758	-0.62744	1.1299	24.80714	121.0242	42.08463	-0.0242004	-0.0889893	42.0846	-40	6.75
20:51:24:15	0	-0.97533	0.0028932	-0.0024946	0.22071	-0.00081444	0.016418	0.014938	-0.38646	0.205637	-25.5026	-0.38428	0.94434	0.12866	24.80714	121.0242	42.09499	-0.0438538	-0.0805054	42.095	-42	7
20:51:24:46	0	-0.9753	0.001987	-0.00077908	0.22088	0.014481	-0.021439	0.0038624	-0.241787	0.0367773	-25.5221	-0.98389	-0.68799	0.15833	24.80714	121.0242	42.09591	-0.0457153	-0.086731	42.0959	-39	5.5
20:51:24:77	0	-0.97525	0.0018536	0.0006233	0.22111	0.036163	-0.024887	-0.0031147	-0.19136	-0.116622	-25.5481	-0.63721	0.48804	-1.4375	24.80714	121.0242	42.13691	-0.0305786	-0.0797119	42.1369	-39	6.25
20:51:25:08	0	-0.97522	0.0015356	0.00032477	0.22124	0.026627	0.042511	-2.32E-06	-0.163373	-0.0752255	-25.5642	0.64111	0.2019	-1.0195	24.80714	121.0242	42.14292	-0.0189362	-0.0774536	42.1429	-41	6.25
20:51:25:39	0	-0.97516	0.0019672	0.00066673	0.22149	0.0084763	-0.019485	-0.0054588	-0.2029	-0.124431	-25.5924	0.016464	1.0078	-1.4463	24.80714	121.0242	42.17257	-0.0175781	-0.0795288	42.1726	-41	6.75
20:51:25:70	0	-0.97513	0.0012995	0.00049626	0.22164	0.016373	0.04129	0.012863	-0.1326	-0.0884569	-25.6107	-0.039886	0.66064	-0.13684	24.80714	121.0242	42.18999	-0.0153198	-0.0799561	42.19	-41	7
20:51:26:01	0	-0.97509	0.0015667	0.00023581	0.22181	0.02916	0.0022888	0.0022068	-0.16906	-0.0661703	-25.6311	-0.50879	0.26685	1.665	24.80715	121.0242	42.19836	-0.0150528	-0.0766602	42.1984	-41	6.75
20:51:26:32	0	-0.97502	0.0020326	0.00029927	0.22211	0.029984	0.010544	-0.007225	-0.219484	-0.0851704	-25.6656	-0.10779	-0.41235	0.55176	24.80715	121.0242	42.18889	-0.0112228	-0.0827026	42.1889	-41	6.75
20:51:26:64	0	-0.97498	0.0015283	0.00038864	0.2223	-0.040039	-0.023163	0.0030003	-0.160853	-0.0823529	-25.6882	0.81934	-0.17017	1.8799	24.80715	121.0242	42.18361	-0.00847626	-0.0878906	42.1836	-41	6.5
20:51:26:94	0	-0.97495	0.0012485	0.0009472	0.22241	0.019608	0.029861	0.01564	-0.115346	-0.137644	-25.7016	-0.31714	0.92285	0.0038967	24.80715	121.0242	42.19226	-0.0123672	-0.0753784	42.1923	-41	6.5
20:51:27:26	0	-0.9749	0.0013614	0.0012284	0.22262	0.016876	-0.025055	-0.0064392	-0.120752	-0.171962	-25.7254	-0.35474	0.15002	-0.56982	24.80715	121.0242	42.20872	-0.00743484	-0.0772095	42.2087	-40	6.75
20:51:27:57	0	-0.97488	0.0013604	0.00082249	0.22274	0.030045	0.059418	-0.00914	-0.13098	-0.126605	-25.7395	0.55273	-0.19275	-1.2168	24.80715	121.0242	42.22046	0.000533104	-0.0760498	42.2205	-41	6.75
20:51:27:88	0	-0.97481	0.0018326	0.00067039	0.22301	-0.00018311	-0.030991	-0.0041084	-0.187586	-0.121719	-25.7716	-0.16455	-1.3047	-0.26807	24.80715	121.0242	42.21938	-0.00511551	-0.0938721	42.2194	-41	6.5
20:51:28:19	0	-0.97479	0.0016643	0.00033827	0.22313	0.033051	0.030563	0.0031128	-0.177254	-0.0803383	-25.7854	0.90576	0.28711	-1.002	24.80715	121.0242	42.20411	0.0017767	-0.0789795	42.2041	-40	6.5
20:51:28:50	0	-0.97474	0.0018643	0.00072042	0.22335	0.029404	-0.011566	-0.0021381	-0.189801	-0.128183	-25.8112	-0.20459	-0.67969	0.40942	24.80715	121.0242	42.20498	-0.001647	-0.0872192	42.205	-41	6.5
20:51:28:81	0	-0.97468	0.0014207	0.00064022	0.22358	-0.029114	0.0028114	4.01E-05	-0.142281	-0.107907	-25.8392	0.56592	-0.072937	1.4619	24.80715	121.0242	42.19473	-0.00255394	-0.0899658	42.1947	-41	6.5
20:51:29:12	0	-0.97461	0.0015965	0.0011119	0.22388	0.041229	-0.0015917	-0.0036831	-0.149781	-0.165135	-25.8739	0.23242	-0.68555	0.72021	24.80715	121.0242	42.19944	0.000183344	-0.0912476	42.1994	-41	7
20:51:29:43	0	-0.97462	0.0012672	0.00076639	0.22386	-0.014816	0.0039787	6.82E-05	-0.12187	-0.118101	-25.8714	0.15649	-0.5166	-1.1611	24.80715	121.0242	42.21577	0.00391006	-0.0842896	42.2158	-41	6.75
20:51:29:75	0	-0.97457	0.0016914	0.0013286	0.22408	0.015396	-0.0055008	0.00057888	-0.15478	-0.191803	-25.8978	-0.35254	1.2373	-1.5039	24.80715	121.0242	42.2328	0.000135899	-0.0717773	42.2328	-40	6.5
20:51:30:06	0	-0.97452	0.0015926	0.00098119	0.2243	0.00057268	0.022415	0.012077	-0.15263	-0.150506	-25.9236	-0.072449	0.71191	-0.013565	24.80715	121.0242	42.23492	0.00179482	-0.076355	42.2349	-40	6.5
20:51:22:37	6	-0.97447	0.0013797	0.00065553	0.22451	0.023743	-0.011681	0.0012722	-0.1372	-0.108696	-25.9477	-1.0029	0.95361	-0.024734	6350.3755	121.05542	42.234039	0.000179172	-0.0864868	42.234	-40	1.25
20:51:30:68	0	-0.9744	0.0019468	0.0010086	0.22479	-0.013718	-0.0041504	-0.00037885	-0.191394	-0.162768	-25.9807	0.16577	1.7061	-1.7354	24.80715	121.0242	42.24699	0.00593948	-0.0738525	42.247	-41	6.75
20:51:30:99	0	-0.97437	0.0013196	0.00077958	0.22493	-0.016693	0.00070572	0.0069046	-0.12725	-0.121057	-25.9974	-0.07959	-0.62891	-0.60742	24.80715	121.0242	42.28528	0.000405073	-0.0738525	42.2853	-41	6.5
20:51:31:30	0	-0.97431	0.0018064	0.0015233	0.22518	0.041473	-0.009552	-0.0049438	-0.162379	-0.216692	-26.0265	0.075134	-0.17261	0.23999	24.80715	121.0242	42.28289	0.00650787	-0.0742188	42.2829	-41	6.25
20:51:31:61	0	-0.97427	0.0013583	0.0011766	0.22536	0.0026207	-0.019272	0.0028133	-0.121262	-0.166432	-26.0476	-0.12195	-0.56104	0.080627	24.80715	121.0242	42.29473	0.00601196	-0.0797119	42.2947	-41	6.75
20:51:31:92	0	-0.97422	0.0011871	0.001337	0.22562	0.024246	0.027557	0.020157	-0.0979586	-0.179951	-26.078	-0.36914	0.60791	0.41895	24.80715	121.0242	42.32014	0.00234985	-0.0737915	42.3201	-41	6.5
20:51:32:23	0	-0.97418	0.00099377	0.0017366	0.22577	-0.050232	-0.025192	-0.0012417	-0.0660086	-0.219577	-26.0963	0.66943	-0.33057	1.5576	24.80715	121.0242	42.34143	0.00651169	-0.0787354	42.3414	-41	7
20:51:32:55	0	-0.97414	0.00092912	0.0019573	0.22594	0.0076065	0.050415	0.01313	-0.0530417	-0.24254	-26.116	-0.54004	0.41846	-0.34985	24.80715	121.0242	42.35144	0.00682068	-0.0695801	42.3514	-41	6.75
20:51:32:85	0	-0.9741	0.0013782	0.0016667	0.22612	0.026474	-0.00018001	0.0025578	-0.110649	-0.221755	-26.1377	-0.3064	0.27905	2.2305	24.80715	121.0242	42.34818	0.00612259	-0.0719604	42.3482	-42	6.5
20:51:33:17	0	-0.97403	0.0019579	0.0016707	0.22639	-0.031021	0.0053978	-0.012291	-0.175189	-0.237269	-26.1694	0.37549	-0.58594	-0.19788	24.80715	121.0242	42.35076	0.016098	-0.0637817	42.3508	-41	3.5
20:51:33:48	0	-0.97399	0.0015055	0.001353	0.22656	0.0025139	-0.0018139	0.0008502	-0.132901	-0.190092	-26.1893	-0.36426	-1.2617	0.013809	24.80715	121.0242	42.38668	0.0120773	-0.0637207	42.3867	-42	6.75
20:51:33:79	0	-0.97394	0.0018063	0.0016283	0.22677	-0.031952	-0.0078888	-0.005188	-0.159277	-0.228666	-26.2141	0.095459	0.015625	0.096619	24.80715	121.0242	42.39931	0.00437164	-0.0620117	42.3993	-42	6.25
20:51:34:10	0	-0.97388	0.0010348	0.0028311	0.22702	-0.0072784	-0.0091858	0.0035496	-0.0418314	-0.342869	-26.2436	0.40063	-0.051697	-0.36401	24.80715	121.0242	42.42678	0.0110321	-0.0629272	42.4268	-42	5.75
20:51:34:41	0	-0.97384	0.00099825	0.0029245	0.22723	-0.03183	-0.027863	0.0024776	-0.0352484	-0.352351	-26.2681	0.55957	-0.99902	0.17725	24.80715	121.0242	42.43293	0.013649	-0.0715332	42.4329	-41	6.5
20:51:34:72	0	-0.97379	0.00099611	0.0028637	0.22744	-0.047699	0.010612	-0.0061378	-0.0365189	-0.345512	-26.2931	0.27271	-0.11285	-0.79395	24.80715	121.0242	42.44397	0.0198517	-0.0543823	42.444	-41	4
20:51:35:03	0	-0.97377	0.0010876	0.0019067	0.22752	-0.0084686	-0.00074148	0.0004344	-0.0716543	-0.241123	-26.3017	-1.0967	-1.0547	0.23694	24.80715	121.0242	42.45615	0.0150528	-0.0564575	42.4561	-41	6
20:51:35:34	0	-0.97371	0.0015641	0.0022452	0.22778	-0.054962	0.012489	-0.018631	-0.115916	-0.291347	-26.3329	0.12323	-0.88672	-0.57666	24.80715	121.0242	42.45922	0.0155792	-0.0578918	42.4592	-41	6.75
20:51:35:66	0	-0.97367	0.0014568	0.0015309	0.22796	-0.011131	0.0061646	0.0051994	-0.122545	-0.208866	-26.3537	0.15491	0.67822	2.1465	24.80715	121.0242	42.4465	0.0194855	-0.0544434	42.4465	-41	6.25
20:51:35:97	0	-0.9736	0.0020679	0.0013381	0.22824	0.030685	0.0015926	0.003027	-0.195708	-0.203374	-26.387	0.15186	-0.039246	0.58008	24.80715	121.0242	42.48075	0.0189362	-0.0519104	42.4807	-40	2
20:51:36:28	0	-0.97357	0.0019524	0.00070548	0.22839	-0.00073576	-0.01091	0.0077248	-0.19935	-0.129803	-26.405	-0.45142	-0.75537	-0.12354	24.80715	121.0242	42.4916	0.0196381	-0.0542603	42.4916	-38	-0.75
20:51:36:59	0	-0.9735	0.0033035	-0.00070367	0.22864	-0.057007	0.0030804	0.0018978	-0.386965	-0.00805675	-26.4347	0.27856	0.46313	-0.14026	24.80715	121.0242	42.48479	0.0323181	-0.0453491	42.4848	-40	4
20:51:36:90	0	-0.97346	0.0021796	-0.00038272	0.22884	0.013176	0.0061531	0.013863	-0.253176	-0.0144643	-26.4578	0.95313	0.6001	-0.66406	24.80715	121.0242	42.49065	0.00753403	-0.0491943	42.4907	-42	6
20:51:37:21	0	-0.97339	0.0030212	-0.00092493	0.22913	-0.018097	-0.021255	0.0037689	-0.361284	0.0238412	-26.4924	-0.1532	-0.35815	0.08197	24.80715	121.0242	42.52722	0.0345154	-0.0523682	42.5272	-40	4.75
20:51:37:52	0	-0.9733	0.0043893	-0.0036103	0.22945	0.015289	0.018112	-0.0087967	-0.584497	0.287251	-26.5318	-0.47046	-1.0459	0.87354	24.80715	121.0242	42.56006	0.0132675	-0.0533142	42.5601	-43	5.75
20:51:37:83	0	-0.97332	0.0031262	-0.0020916	0.22942	0.030289	0.026535	0.011909	-0.403671	0.151102	-26.5261	-0.40356	0.55273	0.11798	24.80715	121.0242	42.56614	0.00532913	-0.0458679	42.5661	-45	6.5
20:51:38:14	0	-0.97324	0.0034178	-0.0015233	0.22976	-0.031052	-0.028	0.0050278	-0.421279	0.0799005	-26.5661	0.81543	-0.82129	0.32471	24.80715	121.0242	42.56381	0.0139923	-0.0586853	42.5638	-43	6.25
20:51:38:45	0	-0.97318	0.0032258	-0.00068736	0.23002	0.020294	-0.005722	0.004734	-0.377858	-0.00837436	-26.5968	-0.039429	0.074646	0.55371	24.80715	121.0242	42.55637	0.00200462	-0.0489197	42.5564	-44	6.25
20:51:38:76	0	-0.97317	0.0025377	0.00091973	0.23006	0.016602	-0.032837	0.0018148	-0.258756	-0.169468	-26.601	-0.10785	1.0439	-1.0703	24.80715	121.0242	42.56241	0.0116806	-0.0364685	42.5624	-43	6.25
20:51:39:08	0	-0.97312	0.0022582	-0.00012509	0.23031	-0.0054207	0.034027	-0.0023079	-0.25512	-0.0456487	-26.6302	0.74609	-0.13574	-1.292	24.80715	121.0242	42.56524	0.027359	-0.0370178	42.5652	-42	6
20:51:39:39	0	-0.97306	0.0026927	-0.00061148	0.23052	-0.050232	-0.012581	-0.0056839	-0.316399	-0.00294398	-26.6551	0.62891	-1.2236	0.61914	24.80715	121.0242	42.56875	0.0220184	-0.0511475	42.5687	-43	6
20:51:39:70	0	-0.97299	0.0031908	-0.00063573	0.23084	0.038696	0.0053864	-0.0098419	-0.372583	-0.0135222	-26.693	0.2644	-0.81152	0.34326	24.80715	121.0242	42.5684	0.0173035	-0.0428772	42.5684	-44	6.25
20:51:40:01	0	-0.97299	0.0026469	-0.00048328	0.23083	0.0099564	0.03418	-0.0038967	-0.307903	-0.0161306	-26.6924	0.87451	0.48804	-1.0918	24.80715	121.0242	42.56924	0.0186768	-0.0291901	42.5692	-43	5.75
20:51:40:32	0	-0.97292	0.0028882	-0.00041142	0.23113	0.0087357	-0.021484	-0.0046501	-0.332898	-0.0306268	-26.7272	-0.23572	-1.002	-0.15527	24.80715	121.0242	42.57656	0.0160217	-0.0448914	42.5766	-43	6
20:51:40:63	0	-0.97289	0.0026455	-0.0004617	0.23126	0.0093231	0.020584	0.010681	-0.307167	-0.0186328	-26.7422	1.0293	0.37354	-1.0039	24.80715	121.0242	42.58926	0.0206604	-0.0289917	42.5893	-43	5.75
20:51:40:94	0	-0.97283	0.0027885	0.00012995	0.23152	0.039337	-0.011818	-0.0052834	-0.307404	-0.088464	-26.7728	-0.051514	-0.66895	0.58594	24.80715	121.0242	42.59799	0.0126877	-0.0412903	42.598	-42	5.75
20:51:41:25	0	-0.97281	0.0026083	0.00011463	0.23157	0.023056	0.016357	-0.0086517	-0.287723	-0.0819934	-26.7794	-0.21191	-0.19751	1.7139	24.80715	121.0242	42.61997	0.00661087	-0.0345154	42.62	-38	-0.5
20:51:41:57	0	-0.97276	0.0018474	0.0021862	0.2318	0.025284	0.0047379	-0.0079803	-0.147868	-0.292766	-26.8056	-0.10907	0.91309	-0.93506	24.80715	121.0242	42.63416	0.00699234	-0.0287628	42.6342	-37	-0.5
20:51:41:87	0	-0.97272	0.0015102	0.0019571	0.23196	-0.0062332	0.015732	0.024902	-0.11631	-0.258294	-26.825	-0.30005	0.81445	0.55615	24.80715	121.0242	42.63659	0.0211945	-0.0284576	42.6366	-43	0.75
20:51:42:19	0	-0.97271	0.0024008	0.00027764	0.23202	-0.012054	0.0048256	-0.00025845	-0.260218	-0.0947755	-26.8314	-0.22888	-0.94531	-1.4121	24.80715	121.0242	42.63582	0.01828	-0.0352783	42.6358	-40	1.75
20:51:42:50	0	-0.97265	0.0023241	0.0015061	0.23228	0.03421	-0.035248	0.0018959	-0.218954	-0.229724	-26.8621	-0.5542	0.072449	-0.81641	24.80715	121.0242	42.63428	0.00513458	-0.0327148	42.6343	-39	-0.25
20:51:42:81	0	-0.97259	0.0013686	0.002264	0.2325	0.018677	0.038116	0.0056953	-0.0922128	-0.288783	-26.8881	-0.42114	0.52051	0.0069847	24.80715	121.0242	42.63042	0.00439453	-0.0287933	42.6304	-38	-1
20:51:35:12	0	-0.97254	0.0017018	0.0021993	0.23274	-0.042236	0.012489	-0.0036259	-0.131007	-0.290485	-26.9166	0.26514	0.2793	1.0908	24.8384	121.0203	117.2249	0.01939392	-0.02993774	117.2249	-40	-3.25
20:51:43:43	0	-0.97247	0.0018198	0.0022233	0.233	-0.043427	0.0087814	-0.0069084	-0.143436	-0.296352	-26.9471	0.21899	-0.31152	-0.039124	24.80715	121.0242	42.61251	0.0142822	-0.0310211	42.6125	-40	-0.75
20:51:43:74	0	-0.97246	0.0016434	0.0017828	0.23307	-0.020035	0.0041504	0.0054779	-0.135516	-0.242564	-26.9554	0.64795	0.085571	-1.0332	24.80715	121.0242	42.63477	0.0148926	-0.0216675	42.6348	-40	-0.75
20:51:44:05	0	-0.97239	0.0019354	0.0021042	0.23335	-0.063965	0.00051451	-0.0048447	-0.159399	-0.286218	-26.9879	-0.11395	-0.0016327	-0.73389	24.80715	121.0242	42.61827	0.0153122	-0.0276489	42.6183	-39	0
20:51:44:36	0	-0.97236	0.0016328	0.001399	0.23347	-0.026093	0.012436	0.0025883	-0.144509	-0.199568	-27.003	-0.55078	-0.76563	-0.41748	24.80715	121.0242	42.64495	0.0129852	-0.0312805	42.6449	-39	-0.5
20:51:44:67	0	-0.97225	0.0021418	0.0015646	0.23392	0.035767	0.0040054	0.0046959	-0.196679	-0.231723	-27.0559	0.035339	-0.4519	0.81396	24.80715	121.0242	42.65804	0.0151215	-0.0342712	42.658	-42	1.25
20:51:44:99	0	-0.97224	0.0019289	0.0016065	0.23396	0.0035057	0.0034065	-0.0023556	-0.171833	-0.230699	-27.0603	0.24976	0.11603	2.0332	24.80715	121.0242	42.66111	0.0130081	-0.0311737	42.6611	-41	1.75
20:51:45:30	0	-0.97219	0.001532	0.0021485	0.23419	-0.0063324	0.014435	0.026505	-0.113018	-0.280472	-27.088	-0.58008	1.0088	0.34302	24.80715	121.0242	42.66005	0.0102386	-0.0261841	42.66	-41	1
20:51:45:61	0	-0.97215	0.0017056	0.0023092	0.23435	-0.060455	-0.017578	-0.010376	-0.127992	-0.303048	-27.1059	0.47949	-1.2959	0.67139	24.80715	121.0242	42.65697	0.0163727	-0.041687	42.657	-43	1
20:51:45:92	0	-0.97207	0.0019047	0.0022533	0.23469	-0.0077515	0.01799	0.0018005	-0.151566	-0.302217	-27.1463	-0.19128	0.13428	0.19604	24.80715	121.0242	42.68597	0.0162964	-0.0306396	42.686	-42	5.5
20:51:46:23	0	-0.97202	0.0017717	0.0021698	0.23487	0.021576	-0.02858	0.0032406	-0.138944	-0.289373	-27.1671	-0.19556	-0.62891	-0.26001	24.80715	121.0242	42.69866	0.0124741	-0.0318909	42.6987	-42	5.75
20:51:46:54	0	-0.972	0.00084483	0.0031628	0.23495	0.022446	0.007019	0.015717	-0.0089492	-0.37503	-27.1771	1.126	0.95605	-0.75781	24.80715	121.0242	42.71757	0.0132294	-0.0161438	42.7176	-41	6.5
20:51:46:85	0	-0.97197	0.0019918	0.0026717	0.2351	-0.032928	0.003952	-0.0019217	-0.149878	-0.351231	-27.1943	-0.61523	1.2803	-1.3174	24.80715	121.0242	42.72464	0.0256653	-0.00390244	42.7246	-41	6.25
20:51:47:16	0	-0.97188	0.0023446	0.00014736	0.23548	0.031982	0.067688	0.00090504	-0.257137	-0.0796768	-27.2398	-0.17688	0.37964	-0.2467	24.80715	121.0242	42.7505	0.0174561	-0.00812531	42.7505	-41	6.75
20:51:47:48	0	-0.97176	0.0029844	-0.0006209	0.23596	0.010941	-0.025146	-0.0039101	-0.349114	-0.0115549	-27.297	-0.18091	0.63184	-0.33911	24.80715	121.0242	42.77036	0.0167084	0.0150375	42.7704	-42	6.5
20:51:47:78	0	-0.9716	0.0040843	-0.004356	0.23655	0.03891	0.078186	2.60E-05	-0.572834	0.374275	-27.3684	-0.011955	0.64111	0.048462	24.80715	121.0242	42.78108	0.0377197	0.0401917	42.7811	-42	6.5
20:51:48:10	0	-0.97137	0.0073616	-0.011352	0.23717	-0.090332	0.028549	-0.010246	-1.12823	1.06363	-27.4524	0.57617	-1.1064	0.60254	24.80715	121.0242	42.78127	0.0486145	0.0634155	42.7813	-41	6.75
20:51:48:41	0	-0.97103	0.0087064	-0.015651	0.2383	-0.0035934	0.025742	-0.012314	-1.39679	1.50398	-27.5957	-0.69092	0.41138	-0.47583	24.80715	121.0242	42.78973	-0.0160675	0.118286	42.7897	-40	6.75
20:51:48:72	0	-0.97061	0.0075329	-0.016962	0.23994	-0.010017	-0.037079	-0.0047913	-1.30488	1.67966	-27.7903	-0.095215	-0.54932	0.1676	24.80715	121.0242	42.80672	-0.0283508	0.152832	42.8067	-40	6.25
20:51:49:03	0	-0.97023	0.0071332	-0.013391	0.24172	0.06958	0.0072632	-0.009491	-1.16437	1.29135	-27.9929	0.97412	1.1523	-1.3867	24.80715	121.0242	42.80314	-0.039978	0.121704	42.8031	-42	6.75
20:51:49:34	0	-0.96986	0.0051008	-0.007378	0.2435	0.0028229	-0.031143	-0.019058	-0.772839	0.677658	-28.1925	-0.033356	-0.34692	-0.082825	24.80715	121.0242	42.83141	-0.0442505	0.0655518	42.8314	-41	-0.5
20:51:49:65	0	-0.96957	0.0065282	-0.0069259	0.24464	0.021042	0.018448	-0.0077515	-0.919562	0.586494	-28.3275	0.87012	-0.90186	-0.98926	24.80715	121.0242	42.84541	0.0125351	0.0183411	42.8454	-42	6.25
20:51:49:96	0	-0.96954	0.0068427	-0.007914	0.24469	-0.072266	-0.010086	0.0043678	-0.982257	0.687408	-28.3347	1.0625	0.10651	0.89551	24.80715	121.0242	42.87682	0.0238953	-0.0228271	42.8768	-40	-0.75
20:51:50:27	0	-0.96947	0.0063603	-0.0072328	0.24504	0.010178	-0.0073433	-0.0036716	-0.909763	0.624932	-28.3742	0.046722	-0.62305	0.77734	24.80715	121.0242	42.91145	0.00817871	-0.0314941	42.9115	-37	-0.75
20:51:50:58	0	-0.96946	0.0048834	-0.0060299	0.24512	0.032562	0.009758	-0.0023746	-0.711923	0.532711	-28.3817	0.83105	0.15527	-1.1904	24.80715	121.0242	42.92814	0.00348854	-0.0258026	42.9281	-38	-1
20:51:50:89	0	-0.96938	0.0046351	-0.004191	0.24548	-0.0066986	-0.0068398	-0.0033875	-0.632793	0.335165	-28.4232	0.0011702	1.1621	-1.4561	24.80715	121.0242	42.93385	0.014801	-0.0270996	42.9339	-40	-1.25
20:51:51:21	0	-0.96934	0.0040033	-0.0039916	0.24564	-0.0016775	0.018799	0.0014877	-0.557057	0.330695	-28.4417	0.39844	0.030121	-1.21	24.80715	121.0242	42.94529	0.0176849	-0.0262909	42.9453	-38	-0.5
20:51:51:51	0	-0.96928	0.0043574	-0.0036449	0.24589	0.034271	-0.027542	-0.0019932	-0.5867	0.282063	-28.4713	-0.085266	1.0215	-1.1494	24.80715	121.0242	42.98057	0.0256348	-0.0239105	42.9806	-40	1.75
20:51:51:82	0	-0.96923	0.0041764	-0.0043613	0.24607	0.020416	0.028168	0.011574	-0.586858	0.36663	-28.4926	1.1982	0.76416	-0.73535	24.80715	121.0242	43.00596	0.0331421	-0.0213928	43.006	-41	0.25
20:51:52:14	0	-0.96917	0.0046425	-0.0047223	0.24629	-0.058075	-0.026657	0.0042076	-0.648893	0.39344	-28.5189	0.76709	-0.93945	1.2148	24.80715	121.0242	43.01817	0.032196	-0.0358582	43.0182	-38	-1
20:51:52:45	0	-0.96908	0.0052674	-0.0053792	0.24662	0.023651	0.0073204	-0.0006175	-0.736999	0.448502	-28.5584	-0.21887	-0.56836	0.99268	24.80715	121.0242	43.03153	0.035614	-0.0272064	43.0315	-42	3.75
20:51:52:76	0	-0.96907	0.0051409	-0.0065622	0.24665	-0.010231	0.0038223	-0.0029202	-0.756411	0.583425	-28.5633	0.00013793	-0.47729	-1.4063	24.80715	121.0242	43.05992	0.0311432	-0.0175323	43.0599	-44	6
20:51:53:07	0	-0.96898	0.0051415	-0.004929	0.24703	0.030151	-0.028244	0.00091887	-0.710465	0.401758	-28.6071	-0.56787	1.2705	-0.62305	24.80715	121.0242	43.08141	0.0103455	-0.0188904	43.0814	-45	6.75
20:51:53:38	0	-0.96889	0.0044677	-0.0044907	0.2474	-0.019974	0.042358	-0.0093307	-0.623367	0.37193	-28.65	0.33032	-0.5083	-0.83887	24.80715	121.0242	43.10113	0.046936	-0.0244446	43.1011	-41	7
20:51:53:69	0	-0.96886	0.0056803	-0.0067708	0.24747	0.010063	0.0062485	0.006115	-0.822711	0.59064	-28.6606	-0.84766	0.65967	-1.0586	24.80715	121.0242	43.11469	0.0415649	-0.0184479	43.1147	-41	6
20:51:54:00	0	-0.9688	0.0048115	-0.0061285	0.24771	0.0051575	0.034912	0.0086823	-0.708163	0.543798	-28.688	-0.62158	0.34766	-0.031738	24.80715	121.0242	43.1215	0.027832	-0.0142136	43.1215	-42	6.5
20:51:54:31	0	-0.96875	0.0046113	-0.004925	0.24795	-0.011955	-0.016037	-0.0033264	-0.651874	0.415702	-28.716	-0.024307	-0.85303	-0.63086	24.80715	121.0242	43.11579	0.0388489	-0.0266571	43.1158	-41	6.25
20:51:54:62	0	-0.96871	0.0045736	-0.0050973	0.24811	0.022583	0.024536	0.0045776	-0.65265	0.435798	-28.7345	0.89941	0.47144	-0.90674	24.80715	121.0242	43.09253	0.0470886	-0.0149689	43.0925	-41	7
20:179:54:94	0	-0.96865	0.0045019	-0.0077666	0.24835	0.025803	-0.027878	0.0065575	-0.720789	0.733955	-28.7647	-0.041077	1.3037	-0.7124	24.83743	121.0203	5.44E-28	0.051849	-0.013084	5.44E-28	-46	3.25
20:51:55:25	0	-0.9686	0.0056625	-0.0063795	0.24849	0.019821	0.041412	0.0077019	-0.810215	0.546843	-28.7816	0.88428	0.7666	-1.207	24.80715	121.0242	43.08344	0.0640869	-0.00767136	43.0834	-42	6.25
20:51:55:55	0	-0.9685	0.0064266	-0.0081734	0.24878	0.0099487	-0.028824	0.0079727	-0.946369	0.723912	-28.8181	-0.2876	0.51025	-0.37671	24.80716	121.0242	43.0809	0.0559082	-0.0152588	43.0809	-41	0.75
20:51:55:87	0	-0.96848	0.0052375	-0.0065773	0.24896	0.012291	0.027527	0.0096436	-0.768961	0.58054	-28.8365	-0.40796	0.74707	0.010628	24.80716	121.0242	43.0731	0.0261688	-0.0167694	43.0731	-42	5.5
20:51:56:17	0	-0.96847	0.0036723	-0.0035871	0.24909	-0.050049	-0.014488	-0.0039024	-0.509942	0.293265	-28.8493	0.7959	-0.54346	0.98682	24.80716	121.0242	43.06765	0.0481262	-0.0242615	43.0677	-44	5.5
20:51:56:49	6	-0.96838	0.0045814	-0.0032661	0.23378	0.013893	0.0082245	-0.011429	-0.600433	0.241521	-27.1462	-0.02781677	-1.048828	166.25	24.83841	121.0203	40.08884	0.0469055	-0.02034	40.0888	-47	1.75
20:51:56:80	0	-0.96836	0.0041198	-0.0037531	0.24951	0.015762	-0.0095139	0.010811	-0.56448	0.298676	-28.899	-0.82373	-0.70166	0.36182	24.80716	121.0242	43.08475	0.0448608	-0.0153275	43.0847	-48	6
20:51:57:11	0	-0.96828	0.0044593	-0.0034259	0.24979	-0.033081	-0.0085373	0.0037193	-0.592872	0.252488	-28.9323	0.25488	1.4346	-1.208	24.80716	121.0242	43.08886	0.0574341	-0.00691605	43.0889	-46	6.5
20:51:57:42	0	-0.96824	0.0041607	-0.0046644	0.24996	-0.022278	0.011314	0.015221	-0.595265	0.398357	-28.9528	-0.14026	-0.24463	-0.59326	24.80716	121.0242	43.09289	0.0525818	-0.0144577	43.0929	-43	6
20:51:57:73	0	-0.96817	0.0053876	-0.0048062	0.25019	0.013107	0.010765	-0.015236	-0.735548	0.378769	-28.9805	-0.30298	-0.87305	0.080627	24.80716	121.0242	43.1114	0.0545959	-0.0149841	43.1114	-45	6.5
20:51:58:04	6	-0.96809	0.0052874	-0.0063458	0.25047	-0.057007	0.0028114	-0.0016003	-0.768749	0.552214	-29.0157	0.66602	-1.1416	1.7012	24.83841	121.3015	70.25798	0.0110168	-0.0229492	70.258	-46	2.25
20:51:58:35	0	-0.96805	0.0054413	-0.0066977	0.25061	0.034058	0.03244	0.010735	-0.796017	0.586721	-29.0326	0.29346	0.87451	-0.87549	24.80716	121.0242	43.13943	0.0552673	-0.00398636	43.1394	-46	6.5
20:51:58:66	0	-0.96797	0.0055832	-0.0054689	0.25093	-0.05545	0.006546	-0.012756	-0.776598	0.44608	-29.0691	0.2605	0.40405	-1.0918	24.80716	121.0242	43.14957	0.0489807	-0.0102158	43.1496	-43	6.25
20:51:58:98	0	-0.96791	0.0051272	-0.0056827	0.25118	0.012192	0.0086136	0.00035453	-0.732298	0.482719	-29.0991	0.80957	0.054932	-0.8291	24.80716	121.0242	43.18205	0.0618591	-0.00463867	43.182	-43	6
20:51:59:28	0	-0.96786	0.005228	-0.0059403	0.25135	-0.000494	0.014702	0.00061941	-0.750982	0.508266	-29.1187	0.2384	0.56689	1.9775	24.80716	121.0242	43.18341	0.0621033	-0.00642014	43.1834	-44	5.75
20:51:59:60	0	-0.96779	0.0056153	-0.0058514	0.25161	0.021408	-0.00084209	-0.0032425	-0.791511	0.487022	-29.1504	0.020813	-0.69971	0.57568	24.80716	121.0242	43.1965	0.0648193	-0.0116959	43.1965	-42	6.25
20:51:59:91	0	-0.96775	0.00551	-0.0062503	0.25177	-0.024521	0.020599	-0.011581	-0.791429	0.534174	-29.1694	0.082031	-0.3396	1.4453	24.80716	121.0242	43.21486	0.0609436	-0.0139313	43.2149	-47	6.5
20:52:00:22	0	-0.96767	0.0058194	-0.0062376	0.25207	-0.0093384	-0.0075302	-0.0121	-0.82553	0.52358	-29.2053	-0.10211	-1.2109	0.5542	24.80716	121.0242	43.25554	0.0613098	-0.0100403	43.2555	-45	6.75
20:52:00:53	0	-0.96767	0.0049195	-0.0056292	0.25212	-0.0233	0.017929	-0.0048332	-0.708184	0.482081	-29.2101	-0.38574	-0.7627	-0.73535	24.80716	121.0242	43.25222	0.0575867	-0.00998688	43.2522	-45	6.75
20:52:00:84	0	-0.96757	0.0052344	-0.0053472	0.25248	-0.03006	-0.022827	0.0041237	-0.735112	0.441431	-29.2525	0.45898	-1.2207	0.46069	24.80716	121.0242	43.25219	0.0756226	-0.019165	43.2522	-46	6.5
20:52:01:15	0	-0.9675	0.0059795	-0.0063774	0.25273	0.03183	0.0017128	0.0054283	-0.847687	0.533875	-29.2835	0.04718	-0.20642	0.67676	24.80716	121.0242	43.26601	0.0733643	-0.0107803	43.266	-45	6.75
20:52:01:46	0	-0.96745	0.0056815	-0.0065219	0.2529	0.02684	0.011444	-0.0024796	-0.818933	0.558395	-29.3033	0.057678	0.15405	2.1563	24.80716	121.0242	43.27681	0.0697632	-0.00932312	43.2768	-46	7
20:52:01:77	0	-0.96739	0.0058716	-0.0065148	0.25315	-0.023575	0.001462	-0.0026741	-0.839952	0.551873	-29.3336	0.23132	-0.74121	0.78369	24.80716	121.0242	43.30979	0.071106	-0.0117035	43.3098	-46	6.75
20:52:02:08	0	-0.96737	0.005116	-0.0061393	0.25324	0.019653	0.031158	0.0022144	-0.74533	0.532101	-29.3428	0.92725	0.54346	-1.1182	24.80716	121.0242	43.30577	0.0706787	-0.00068903	43.3058	-45	6.5
20:52:02:39	0	-0.9673	0.0054782	-0.0058328	0.25352	-0.036255	0.0029736	-0.0031967	-0.776726	0.487388	-29.3764	0.24939	-0.087463	-0.60156	24.80716	121.0242	43.31435	0.0779419	-0.00721741	43.3143	-49	6.25
20:52:02:71	0	-0.96726	0.0058026	-0.0071932	0.25362	-0.012924	-0.0077934	0.015701	-0.852293	0.628666	-29.3893	-0.61719	-0.42188	0.35059	24.80716	121.0242	43.32241	0.0775757	-0.00588226	43.3224	-45	6.75
20:52:03:01	0	-0.96721	0.0063602	-0.0072762	0.2538	0.0065193	-0.04248	0.0058632	-0.916631	0.62149	-29.4114	-0.56641	0.10767	-0.86963	24.80716	121.0242	43.366	0.0666504	-0.00285721	43.366	-45	6.25
20:52:03:32	0	-0.96713	0.0062451	-0.0070602	0.25411	0.0088882	0.0055885	-0.019562	-0.897785	0.600607	-29.4474	-0.15063	-1.0225	0.40552	24.80716	121.0242	43.40165	0.0714111	-0.00588989	43.4016	-45	6.25
20:52:03:64	0	-0.96709	0.0057445	-0.0070627	0.25426	-0.015121	-0.0018005	0.0024929	-0.842466	0.615331	-29.465	0.05722	-0.4751	-1.1328	24.80716	121.0242	43.39494	0.0725708	1.19E-06	43.3949	-46	6.5
20:52:03:94	0	-0.96704	0.0059648	-0.0064833	0.25448	0.02179	-0.03656	0.0057602	-0.850115	0.544517	-29.4903	-0.30371	-0.17957	-0.18933	24.80716	121.0242	43.40541	0.0731812	-0.00319862	43.4054	-45	6.5
20:52:04:26	0	-0.967	0.0055855	-0.0061117	0.25464	0.03186	0.034332	0.010933	-0.797319	0.514257	-29.5094	0.0075989	0.52051	-0.49756	24.80716	121.0242	43.43148	0.0703125	0.00481415	43.4315	-45	7
20:52:04:57	0	-0.96693	0.0053837	-0.0056438	0.25492	-0.039734	-0.021103	0.0091705	-0.761437	0.468089	-29.5414	0.93311	-0.41211	1.002	24.80716	121.0242	43.4466	0.0766602	-0.00338173	43.4466	-45	6.5
20:52:04:88	0	-0.96685	0.0054444	-0.0054229	0.25522	0.0033245	0.0092926	0.017563	-0.761843	0.441599	-29.5767	-0.25464	0.87939	0.41431	24.80716	121.0242	43.45153	0.072876	0.00563812	43.4515	-45	6
20:52:05:19	0	-0.96682	0.0054655	-0.0055513	0.25533	-0.029144	0.01181	-0.0010633	-0.767999	0.455118	-29.5908	0.40723	0.41357	1.6543	24.80716	121.0242	43.47186	0.0790405	0.00528336	43.4719	-44	5.75
20:52:05:50	0	-0.96678	0.005752	-0.005149	0.25549	0.0022373	-0.014458	0.0076294	-0.788025	0.402035	-29.6088	-0.3396	1.5723	-1.5283	24.80716	121.0242	43.51182	0.0717163	0.0113678	43.5118	-45	6.5
20:52:05:81	0	-0.96669	0.0050623	-0.0055553	0.25584	-0.020874	0.0298	0.00030184	-0.723678	0.466985	-29.6505	-0.12018	0.75781	-0.86328	24.80716	121.0242	43.49781	0.0712891	0.0185547	43.4978	-45	6
20:52:06:12	0	-0.96659	0.0053906	-0.0061834	0.25618	0.03244	-0.0030575	-0.016006	-0.778661	0.526655	-29.6922	-0.4082	-1.8477	0.26074	24.80716	121.0242	43.50847	0.0805054	-0.00128937	43.5085	-44	6.5
20:52:06:44	0	-0.96653	0.0065289	-0.007543	0.25637	-0.001483	0.0039902	0.0053635	-0.944811	0.643646	-29.7162	0.024323	1.2539	-1.1689	24.80716	121.0242	43.48962	0.0828857	0.0116272	43.4896	-44	6
20:52:06:75	0	-0.96648	0.0061601	-0.007522	0.25657	0.01976	0.023026	0.0058899	-0.903477	0.651971	-29.7397	-0.54639	0.61279	0.16931	24.80716	121.0242	43.48819	0.0619202	0.0133972	43.4882	-43	5.75
20:52:07:05	0	-0.96642	0.0061054	-0.0071153	0.25679	-0.0035667	-0.012207	-0.0052719	-0.885595	0.608331	-29.7649	-0.15808	-0.30298	-0.8374	24.80716	121.0242	43.48423	0.0704346	0.00701523	43.4842	-43	6.25
20:52:07:37	0	-0.96632	0.0057962	-0.0079482	0.25716	0.056488	0.039185	-0.0045967	-0.876142	0.709338	-29.8098	0.37915	0.24536	-0.54834	24.80716	121.0242	43.4762	0.0734863	0.0133362	43.4762	-44	6
20:52:07:68	0	-0.96627	0.0063236	-0.0076253	0.25735	0.007843	-0.024094	0.008194	-0.92516	0.657842	-29.8329	0.25513	1.7109	-0.95898	24.80716	121.0242	43.46232	0.0755615	0.0171967	43.4623	-44	6
20:52:07:99	0	-0.96623	0.0061246	-0.0084743	0.25748	0.011307	0.037872	0.006012	-0.92828	0.757603	-29.8493	0.87354	1.3682	-0.71338	24.80716	121.0242	43.46987	0.0730591	0.0220642	43.4699	-45	7
20:52:08:30	0	-0.96616	0.0068123	-0.0084399	0.25772	0.020798	-0.026688	0.0082855	-1.0036	0.733245	-29.8782	-0.66943	0.71533	-0.9751	24.80716	121.0242	43.47759	0.0650635	0.0117493	43.4776	-45	6.5
68:52:08:61	3	-0.96619	0.006227	-1.04E-31	0.25803	0.0025482	0.0084152	0.013824	-0.689364	-0.184097	-29.9039	-0.7895508	0.449707	130	24.8062	121.0203	43.47597	9.42969	0.0155029	43.476	-45	2.75
20:52:08:92	0	-0.96602	0.005898	-0.0079542	0.25829	0.039612	-0.0025883	0.00048876	-0.888425	0.705959	-29.9441	-0.52783	-0.44849	1.7354	24.80716	121.0242	43.49042	0.0652466	0.010849	43.4904	-45	7
20:52:09:23	0	-0.96596	0.0060021	-0.0076322	0.25851	-0.035339	-0.00027061	-0.0043411	-0.890557	0.667037	-29.9695	0.45264	0.72363	-0.15173	24.80716	121.0242	43.5012	0.0662231	0.0191956	43.5012	-45	6.5
20:52:09:54	0	-0.96587	0.0056964	-0.0079146	0.25883	-0.0054893	0.015656	0.011543	-0.865326	0.707064	-30.008	-0.16077	0.91113	-0.23218	24.80716	121.0242	43.50138	0.0693359	0.0183563	43.5014	-46	6.75
20:52:09:85	0	-0.96581	0.0059298	-0.0084838	0.25906	-0.052582	0.0031052	0.0002954	-0.90824	0.762923	-30.0365	0.79004	0.081726	1.8291	24.80716	121.0242	43.49028	0.0708618	0.00944519	43.4903	-46	6.75
20:52:10:16	0	-0.96574	0.0064061	-0.0084088	0.25929	-0.0086823	0.0087891	0.0072327	-0.958909	0.740245	-30.0636	0.2168	0.59375	0.15759	24.80716	121.0242	43.48785	0.0814209	0.0205231	43.4878	-44	6
20:52:10:48	0	-0.96565	0.0062895	-0.0097741	0.25957	-0.048676	-0.0027027	-0.0016642	-0.986862	0.894516	-30.0991	0.45581	-0.49536	1.4121	24.80716	121.0242	43.50213	0.065979	0.0051384	43.5021	-46	6.5
20:52:10:78	0	-0.96559	0.0061568	-0.0098893	0.25981	0.011795	0.036682	0.0057716	-0.975841	0.910973	-30.1279	-0.58594	0.0008831	-0.11334	24.80716	121.0242	43.50976	0.0675049	0.0165405	43.5098	-46	6.25
20:52:11:10	0	-0.96554	0.0063885	-0.010211	0.25998	-0.02417	-0.032196	0.013649	-1.01121	0.93944	-30.1478	0.77002	-0.35791	0.58984	24.80716	121.0242	43.5249	0.0692139	0.00813293	43.5249	-44	5.75
20:52:11:41	0	-0.96548	0.0062349	-0.0097791	0.26021	0.011459	0.015701	0.0051727	-0.981574	0.896043	-30.1752	-0.15942	0.86768	-0.11456	24.80716	121.0242	43.54094	0.0578308	0.0207214	43.5409	-44	6
20:52:11:72	0	-0.96542	0.006383	-0.0099293	0.26045	-0.043274	-0.013405	0.0084	-1.00266	0.907999	-30.2035	0.61475	0.16138	0.91064	24.80716	121.0242	43.56854	0.0701904	0.014061	43.5685	-48	6
20:52:12:03	0	-0.96533	0.0074801	-0.010885	0.26069	0.030319	0.005722	-0.0028419	-1.15285	0.980692	-30.2343	0.065552	-0.72559	0.84619	24.80716	121.0242	43.57777	0.0733643	0.0150833	43.5778	-49	6
20:52:12:34	0	-0.96533	0.0067773	-0.010762	0.26072	0.035309	0.048523	-0.0067635	-1.07145	0.988033	-30.2372	0.33374	0.55127	-0.88721	24.80716	121.0242	43.57393	0.0623169	0.0222015	43.5739	-44	5.25
20:52:12:65	0	-0.96526	0.0065829	-0.0099931	0.26102	0.027573	-0.01165	0.010376	-1.02722	0.908484	-30.2714	-1.2256	-0.38257	1.0117	24.80716	121.0242	43.57174	0.0520325	0.0166321	43.5717	-46	6.75
20:52:12:96	0	-0.96523	0.0065809	-0.0087081	0.26116	0.0036907	0.0054436	-0.0082245	-0.988643	0.766255	-30.2868	-0.42944	0.8877	-1.4512	24.80716	121.0242	43.5859	0.0602112	0.0237732	43.5859	-49	6
20:52:13:28	0	-0.96516	0.0060719	-0.0088117	0.26143	-0.011261	0.016068	0.0068855	-0.935657	0.792694	-30.3182	0.89014	0.32837	-1.2705	24.80716	121.0242	43.59808	0.0674438	0.0243835	43.5981	-46	6.5
20:52:13:58	0	-0.96511	0.0063327	-0.0079904	0.26164	-0.028351	-0.0079193	0.00071907	-0.940027	0.693844	-30.3416	0.46289	1.0664	-1.2139	24.80716	121.0242	43.60366	0.06427	0.0233459	43.6037	-44	6
20:52:13:90	0	-0.96506	0.0056969	-0.0078112	0.26184	-0.015617	-0.014755	0.012001	-0.864485	0.692908	-30.3656	-0.27051	-0.15088	0.30884	24.80716	121.0242	43.58379	0.0613098	0.022171	43.5838	-46	6.25
20:52:14:21	0	-0.96502	0.0062163	-0.0073397	0.26202	-0.043762	0.018112	-0.0076218	-0.907873	0.625009	-30.3858	-0.062073	1.2314	-1.0762	24.80716	121.0242	43.58862	0.065918	0.0298004	43.5886	-47	6.25
20:52:14:52	0	-0.96495	0.0058346	-0.0079758	0.26224	-0.033691	-0.0012026	0.0012321	-0.884944	0.706608	-30.413	-0.80957	-0.81104	-0.62549	24.80716	121.0242	43.61622	0.058075	0.0242615	43.6162	-48	6
20:52:14:83	0	-0.96486	0.0062184	-0.0075742	0.26257	-0.026474	0.026489	-0.022629	-0.915529	0.65035	-30.4523	0.015701	-0.9707	-0.75635	24.80716	121.0242	43.61292	0.0604553	0.0200958	43.6129	-48	6
20:52:15:14	0	-0.96481	0.0056989	-0.0076855	0.26279	0.038574	-0.0074043	-0.0013294	-0.861593	0.678106	-30.4773	-0.7041	-0.85889	1.0781	24.80716	121.0242	43.60328	0.052124	0.0197449	43.6033	-50	6.75
20:52:15:45	0	-0.96476	0.0060003	-0.0072462	0.26296	-0.04007	0.012917	-0.0053978	-0.881786	0.620301	-30.4975	0.41675	0.93506	-1.3926	24.80716	121.0242	43.60555	0.0635376	0.0299988	43.6056	-52	6
20:52:15:76	0	-0.96468	0.0058173	-0.008191	0.26324	0.010086	0.0044556	0.0028801	-0.890254	0.73001	-30.5315	-0.000180483	-0.263916	146.5	24.8062	121.3015	43.74513	0.0589905	0.0235596	43.7451	-52	1.5
20:52:16:07	0	-0.96462	0.0064851	-0.0080383	0.26346	0.014069	0.0065498	-0.005661	-0.95963	0.692758	-30.558	0.010696	-0.35498	0.14172	24.80716	121.0242	43.67417	0.0618896	0.0289001	43.6742	-51	6.75
20:52:16:39	0	-0.96456	0.0060738	-0.0080264	0.26367	0.026611	0.0073814	-0.0071259	-0.913954	0.703671	-30.5827	-0.62744	-0.224	1.7607	24.80716	121.0242	43.70174	0.0540771	0.0281067	43.7017	-51	6.75
20:52:16:69	0	-0.96451	0.0059806	-0.0075567	0.26386	-0.023758	0.023163	-0.017517	-0.889586	0.654392	-30.6054	-0.068787	-0.6001	-0.89111	24.80716	121.0242	43.71004	0.0608521	0.0288239	43.71	-51	6.5
20:52:17:01	0	-0.96444	0.0056867	-0.0077592	0.26412	0.034088	0.0033035	-0.0074463	-0.863411	0.685429	-30.6359	-0.86523	-1.4688	0.6543	24.80716	121.0242	43.73592	0.0541077	0.0259857	43.7359	-51	6.75
20:52:17:32	0	-0.96436	0.0061084	-0.0075245	0.2644	0.044037	0.0098877	-0.012497	-0.903106	0.646448	-30.6697	0.31128	-1.0527	-0.13818	24.80716	121.0242	43.74698	0.0635376	0.0251923	43.747	-51	7
20:52:17:63	0	-0.96435	0.0056105	-0.0072097	0.26449	-0.023392	-0.038391	0.01564	-0.838588	0.626682	-30.6789	-0.035065	0.028549	0.59424	24.80716	121.0242	43.75933	0.0580139	0.0278168	43.7593	-51	6.5
20:52:17:94	0	-0.96428	0.0055934	-0.0074835	0.26472	0.034576	0.054413	-0.007988	-0.845152	0.657261	-30.7066	0.35059	0.11786	-0.83594	24.80716	121.0242	43.7649	0.0622864	0.0380554	43.7649	-51	6.5
20:52:18:25	5	-0.96421	0.0057987	-0.0074466	0.26497	-0.057709	-0.00054598	0.00054884	-0.866897	0.646722	-30.7372	0.75635	-0.62793	0.26636	24.8062	121.3015	43.77849	0.0602112	0.0257874	43.7785	-51	2.25
20:52:18:56	0	-0.96413	0.0058295	-0.0073068	0.26525	-0.0023117	0.00066566	-0.0089035	-0.866227	0.630093	-30.7697	-0.045837	-0.66211	0.12915	24.80716	121.0242	43.77304	0.054718	0.0287476	43.773	-50	6.5
20:52:18:87	0	-0.96409	0.005585	-0.0071733	0.26542	-0.03717	-0.0016375	-0.0028114	-0.835266	0.622618	-30.7901	0.53711	-0.32593	1.0449	24.80716	121.0242	43.76679	0.0557251	0.0260315	43.7668	-50	6.5
20:52:19:19	0	-0.964	0.0057398	-0.0069844	0.26575	0.010399	0.0043869	0.0051003	-0.846825	0.596758	-30.8283	0.035919	0.058716	0.26172	24.80716	121.0242	43.75285	0.0544739	0.0317078	43.7529	-51	6.25
20:52:19:50	0	-0.96395	0.0054052	-0.006903	0.26593	-0.052948	-0.027023	0.013191	-0.807491	0.597805	-30.8499	0.8042	-0.57373	1.4229	24.80716	121.0242	43.7754	0.0548401	0.0228271	43.7754	-51	6.5
20:52:19:81	0	-0.96394	0.0052947	-0.0071809	0.26599	-0.027374	0.014038	0.0014677	-0.803792	0.631824	-30.8569	0.30884	0.26855	-1.04	24.80716	121.0242	43.76974	0.0552979	0.0369873	43.7697	-51	6.5
20:52:20:12	0	-0.96383	0.0056793	-0.0070807	0.26636	0.019119	0.016144	-0.01886	-0.843461	0.608704	-30.9016	0.16602	-1.0117	-0.31421	24.80716	121.0242	43.76344	0.0493164	0.0256958	43.7634	-50	6.75
20:52:20:43	0	-0.9638	0.0054149	-0.0068127	0.26648	0.021164	-0.0053329	-0.00074434	-0.806146	0.58708	-30.9147	0.18066	0.040558	2.2168	24.80716	121.0242	43.77853	0.0472412	0.0306244	43.7785	-50	6.75
20:52:20:74	0	-0.96373	0.0057559	-0.006877	0.26673	0.0079575	0.015038	-0.0046463	-0.845927	0.583536	-30.9456	-0.053528	-0.14502	0.027145	24.80716	121.0242	43.79635	0.0490723	0.0329285	43.7963	-51	6.5
20:52:21:05	0	-0.96368	0.0054137	-0.0069739	0.26692	0.039764	-0.0028114	-0.0029373	-0.811212	0.604547	-30.9679	-0.73926	-1.0215	1.3203	24.80716	121.0242	43.78492	0.0394897	0.0261536	43.7849	-50	6
20:52:21:36	0	-0.96364	0.0054979	-0.0063652	0.26706	-0.020782	-0.00087547	-0.0038548	-0.801968	0.534628	-30.9841	0.15613	1.2207	-1.4082	24.80716	121.0242	43.78251	0.0457458	0.0370483	43.7825	-49	6.25
20:52:21:67	0	-0.96357	0.005146	-0.0066854	0.26732	-0.02417	0.0028267	-0.0030632	-0.77306	0.580556	-31.0152	-0.34473	-0.73242	-0.84863	24.80716	121.0242	43.77566	0.0446777	0.0286102	43.7757	-50	6
20:52:21:98	0	-0.96354	0.005681	-0.0063845	0.26744	0.030838	-0.01255	0.0021648	-0.822977	0.530841	-31.0285	-0.51855	0.9043	-1.3047	24.80716	121.0242	43.78868	0.0380859	0.0298157	43.7887	-50	6.25
20:52:22:29	0	-0.96347	0.0051815	-0.0065845	0.2677	0.033936	0.040222	-0.0030613	-0.77411	0.568025	-31.0601	0.28394	0.53271	-0.53955	24.80716	121.0242	43.77711	0.0423279	0.0360107	43.7771	-51	6.25
20:52:22:60	0	-0.96338	0.005591	-0.0062799	0.26799	0.0049934	-0.0094147	-0.0089874	-0.810134	0.52158	-31.0947	-0.13562	0.54199	-1.7744	24.80716	121.0242	43.78616	0.0387878	0.0304108	43.7862	-50	6.25
20:52:22:91	0	-0.96331	0.00489	-0.0065074	0.26829	0.016632	0.015297	0.017822	-0.739909	0.568007	-31.1292	-0.16101	0.55371	0.11969	24.80716	121.0242	43.79546	0.0360413	0.0298309	43.7955	-50	6.25
20:52:23:23	0	-0.96325	0.0052493	-0.0066878	0.26848	0.02594	0.019653	-0.00094748	-0.785236	0.57671	-31.153	-0.49194	0.080566	1.9199	24.80716	121.0242	43.79098	0.0371704	0.0275421	43.791	-51	6.25
20:52:23:53	0	-0.96318	0.005092	-0.0069995	0.26872	-0.039154	-0.0040245	0.002039	-0.777623	0.615769	-31.1814	0.15173	0.58301	-1.2305	24.80716	121.0242	43.78197	0.0311279	0.0294037	43.782	-51	6.5
20:52:23:85	0	-0.96314	0.0046403	-0.0060971	0.2689	0.055237	0.023849	0.012421	-0.700057	0.529943	-31.2019	0.20227	0.94238	0.26782	24.80716	121.0242	43.77654	0.0296783	0.03302	43.7765	-51	6.25
