UTC,Pack_count,q0,q1,q2,q3,RollRate,PitchRate,YawRate,Roll,Pitch,Yaw,FreeAccX,FreeAccY,FreeAccZ,Lat,Long,Height,VelX,VelY,VelZ,LoRaRSSI,LoRaSNR,
21:54:22:85,4519,0.02771    0.022833   -0.011736     0.99929,-0.42139    -0.13831    0.021179,-1.272898     -2.652787      176.8527,-0.4668      2.3691      2.3848,24.80668      121.0487      75.66872,0.00317    -0.30127   -0.021301,-59,6.25,
21:54:23:17,4520,0.028602    0.020754   0.0016379     0.99937,0.14307   0.0060272    0.017273,0.2558144     -2.372069       176.716,1.7598     -2.0566   -0.054779,24.80668      121.0487      75.61294,0.063416    -0.23792   -0.027283,-58,6,
21:54:23:48,4521,0.028386    0.028671  -0.0044196     0.99918,-0.095276    0.027115     0.11206,-0.4134581     -3.298956      176.7572,-0.069885    -0.43335      1.5459,24.80668      121.0487      75.58817,0.046417    -0.25708   -0.017212,-57,6.5,
21:54:23:79,4522,0.027501    0.026623  -0.0015695     0.99927,0.049042    0.019867   -0.045837,-0.09595801     -3.054948      176.8496,0.77979     -2.3789     0.55664,24.80668      121.0487      75.55276,-0.0028591    -0.25195    -0.03476,-57,6.25,
21:54:24:10,4523,0.027132    0.025025  -0.0030086     0.99931,-0.10303  -0.0029335    0.068115,-0.2670627     -2.876205      176.8963,-2.0117      1.2939     -2.1699,24.80668      121.0487      75.53651,0.00042105    -0.24524   -0.033905,-56,6.25,
21:54:24:41,4524,0.027564    0.028011  -0.0023423     0.99922,0.013367   -0.042236   -0.061554,-0.180012     -3.216368      176.8448,-0.038849    -0.60596     -1.9785,24.80668      121.0487      75.51369,0.02475    -0.24121   -0.021347,-57,6.5,
21:54:24:72,4525,0.027789    0.029517  -0.0011326     0.99918,0.078186    0.008255   -0.082703,-0.03575201     -3.385137      176.8149,1.2637     -1.5381    -0.14917,24.80668      121.0487      75.49555,0.0076981    -0.22656  -0.0012054,-57,6.75,
21:54:25:03,4526,0.027906    0.025795  -0.0015359     0.99928,-0.04953    0.064087    0.055511,-0.09351168     -2.959941      176.8031,-0.88379     0.80176     -1.4023,24.80668      121.0487      75.47606,-0.036407    -0.22437    -0.01619,-57,6.5,
21:54:25:34,4527,0.02768    0.022284  -0.0017753     0.99937,-0.014259  -0.0022335   -0.026917,-0.1327542     -2.558417      176.8299,-0.18445     0.59766      -0.224,24.80668      121.0487       75.4611,-0.01973    -0.21692     -0.0159,-58,6.25,
21:54:25:66,4528,0.027402    0.021159 -0.00094927      0.9994,0.057922   -0.034393     0.02475,-0.0423086     -2.426929      176.8597,0.083069     0.59473      1.6064,24.80668      121.0487      75.44889,0.012833    -0.21008   0.0015039,-59,5.5,
21:54:25:96,4529,0.027746    0.025071  -0.0010197      0.9993,0.024918  -0.0057793    0.029114,-0.03709883     -2.875365      176.8201,-0.34888     0.62305    -0.72217,24.80668      121.0487      75.43344,0.0034161    -0.19324  -0.0023174,-60,6,
21:54:26:28,4530,0.027689    0.026253 -0.00052694     0.99927,-0.016251    0.021378  -0.0081329,0.0229928     -3.009288       176.825,0.27246   -0.019775     0.22888,24.80668      121.0487      75.41772,-0.015854    -0.19556  0.00028276,-60,6.5,
21:54:26:58,4531,0.027753    0.025997  -0.0012405     0.99928,-0.023666  -0.0039635     -0.0056,-0.05945406     -2.982155      176.8198,0.46631      1.0049   -0.073853,24.80668      121.0487      75.39865,-0.029099    -0.17664  -0.0085526,-60,6.25,
21:54:26:90,4532,0.027713     0.02483 -0.00081717     0.99931,0.083313    0.011169   -0.015442,-0.01474355     -2.847049      176.8233,1.1143     -1.2441      1.0244,24.80668      121.0487      75.38577,-0.032471    -0.18713    0.017975,-60,6,
21:54:27:21,4533,0.027855    0.022715  -0.0008954     0.99935,-0.0088501    0.025269   0.0029488,-0.03006662     -2.604962      176.8075,0.13013    0.032776    0.027222,24.80668      121.0487      75.36081,-0.048065    -0.16479   -0.012329,-60,6.25,
21:54:27:52,4534,0.027892    0.022437  -0.0013275     0.99936,-0.041412   -0.017624  6.4254e-05,-0.0803932     -2.574504      176.8044,0.043457    0.078674      1.4473,24.80668      121.0487       75.3488,-0.047546    -0.16443   -0.013115,-60,6,
21:54:27:83,4535,0.027817    0.023226 -0.00064695     0.99934,-0.011597  -0.0031052  -0.0086136,-5.173538e-05     -2.662802      176.8112,-0.2771   -0.012711    0.010811,24.80668      121.0487      75.35692,-0.051208    -0.15771   -0.010628,-60,5.75,
21:54:28:14,4536,0.027939    0.024453  -0.0010579     0.99931,0.090637  -0.0058212   -0.022232,-0.0429069      -2.80467      176.7981,0.85889   0.0075722      1.4746,24.80668      121.0487      75.35529,-0.052216    -0.15234   0.0050125,-60,6.5,
21:54:28:45,4537,0.027924    0.023176 -0.00076463     0.99934,0.0019026    0.037537    0.042786,-0.01341638     -2.657439      176.7992,-0.79492     0.54883    -0.46851,24.80668      121.0487      75.34305,-0.076721    -0.12903   -0.014931,-60,6.25,
21:54:28:76,4538,0.028364    0.022409 -0.00066286     0.99935,-0.013336   -0.010422   -0.033264,-0.003075639     -2.569238      176.7485,0.23572    -0.36938    -0.40698,24.80668      121.0487      75.31767,-0.064697    -0.13782  -0.0048027,-60,6,
21:54:29:07,4539,0.028532    0.024412 -0.00017327     0.99929,-0.007061  -0.0077744    -0.01062,0.06004376     -2.797071      176.7276,-0.38452     0.21265     0.18542,24.80668      121.0487      75.30439,-0.075134    -0.13416   -0.014885,-61,7.25,
21:54:29:39,4540,0.028786    0.023733 -0.00064012      0.9993,0.0026245  -0.0036678     0.03421,0.004989512     -2.720844      176.6999,-0.58545      1.0889      2.1289,24.80668      121.0487      75.29945,-0.089294    -0.12512   0.0024071,-62,6.25,
21:54:29:69,4541,0.0289    0.022293 -0.00018187     0.99933,0.031891    0.019516    0.021606,0.05305482     -2.554386      176.6858,-0.037933   -0.062469    -0.63037,24.80668      121.0487      75.29284,-0.09613     -0.1123   -0.015129,-62,6.25,
21:54:30:01,4542,0.028785    0.021039 -0.00027552     0.99936,-0.050781   0.0066338  -0.0063133,0.03787802     -2.410962      176.6995,0.10272     -1.5928     0.44702,24.80668      121.0487      75.28567,-0.10284    -0.11511   -0.016754,-63,5.75,
21:54:30:32,4543,0.028724    0.021578  0.00019431     0.99935,0.013802   0.0078583    0.015823,0.09336182     -2.471174      176.7053,-0.45874      0.7666     -0.9624,24.80668      121.0487      75.29909,-0.093506   -0.098022 -5.5015e-05,-63,5.5,
21:54:30:63,4544,0.028626    0.021083 -0.00030797     0.99937,-0.018845    0.015053    0.017181,0.03392193     -2.416144      176.7178,0.14551     0.69775    -0.33618,24.80668      121.0487      75.29391,-0.10828     -0.0849  -0.0069656,-63,6,
21:54:30:94,4545,0.028646    0.019838 -0.00070186     0.99939,0.017593    0.016861    0.020767,-0.0152706     -2.274799      176.7166,0.045624      1.0371      1.4893,24.80668      121.0487      75.28822,-0.10944   -0.076111    0.014755,-63,6.25,
21:54:31:25,4546,0.028844    0.020367   5.611e-05     0.99938,0.034241   -0.024628  -0.0013504,0.07380618     -2.332929      176.6921,-0.60889      1.2695     -1.2266,24.80668      121.0487      75.29857,-0.099731   -0.073364    0.003727,-63,6.25,
21:54:31:56,4547,0.028923    0.023238 -0.00026685     0.99931,-0.048523   -0.015762    0.028198,0.04651167     -2.662899      176.6832,-0.39893     0.80615    -0.22583,24.80668      121.0487      75.29511,-0.10461   -0.066223   0.0041962,-62,5.5,
21:54:31:87,4548,0.029013    0.024436 -5.9765e-05     0.99928,-0.0085983   -0.010185   0.0067596,0.07448423     -2.799409      176.6721,0.11566     0.46216      2.1172,24.80668      121.0487      75.29281,-0.12231   -0.067932    0.015793,-63,6,
21:54:32:18,4549,0.029075    0.022979   0.0005105     0.99931,0.0032654    0.036865   -0.007267,0.1351611     -2.630623      176.6638,0.33496    -0.18896     0.28198,24.80668      121.0487      75.27972,-0.12598   -0.055847 -0.00027704,-63,6.25,
21:54:32:49,4550,0.028936     0.01962 -0.00029559     0.99939,0.060028    0.034241    0.023804,0.03123077      -2.24852      176.6824,-0.26416     -0.0448       1.251,24.80668      121.0487      75.28712,-0.14807   -0.054016    0.015839,-63,5.75,
21:54:32:80,4551,0.028971     0.01562 -0.00057549     0.99946,-0.049957    0.015068  -0.0054588,-0.01406308     -1.791109      176.6795,-0.15503      0.7959    -0.46973,24.80668      121.0487      75.28312,-0.14917   -0.040649  -0.0038872,-64,6,
21:54:33:12,4552,0.029294    0.012932   0.0001251     0.99949,0.0046501    0.035522    0.023087,0.05775802     -1.480858      176.6416,-0.36084     0.81055     -1.1758,24.80668      121.0487      75.27315,-0.1405   -0.044189  -0.0016336,-63,5.75,
21:54:33:42,4553,0.029275    0.012845 -0.00026454     0.99949,0.028824    0.029877  -0.0041199,0.01279504      -1.47218      176.6444,0.34766    -0.88867    -0.68311,24.80668      121.0487      75.26595,-0.13049   -0.036987  -0.0070534,-63,5.5,
21:54:33:73,4554,0.029217    0.011538  0.00046163     0.99951,-0.034088    0.025803   0.0067329,0.09152631     -1.320077      176.6503,-0.64648    0.056641     -1.1455,24.80668      121.0487      75.25913,-0.14587   -0.036621   0.0011816,-64,6,
21:54:34:05,4555,0.029447    0.010733  0.00028951     0.99951,-0.0012589   0.0024529   -0.032715,0.06939135     -1.228377      176.6242,0.46045     0.37305     0.34058,24.80668      121.0487      75.24352,-0.14417   -0.032898  -0.0065231,-63,5.75,
21:54:34:35,4556,0.029446    0.010391  5.1778e-05     0.99951,-0.038147   -0.008812   0.0022888,0.04100207     -1.190091      176.6247,-0.026062    -0.20923      1.3643,24.80668      121.0487      75.23028,-0.1488   -0.035675  -0.0086517,-63,5.75,
21:54:34:67,4557,0.029524    0.010013  0.00045975     0.99951,0.0045929    0.013741    0.019211,0.08655025     -1.145331      176.6153,-0.30396     0.50732    -0.85986,24.80668      121.0487      75.21297,-0.1488   -0.028763   -0.013962,-63,5.25,
21:54:34:98,4558,0.029464   0.0093526 -8.0954e-05     0.99952,-0.041412   0.0095367    0.010048,0.02230895     -1.071555      176.6229,-0.1203     0.38501    -0.45972,24.80668      121.0487      75.20438,-0.15649   -0.020599   -0.014282,-65,5.75,
21:54:35:29,4559,0.029411   0.0097542  0.00012955     0.99952,-0.037445  -0.0005703    0.022064,0.04772123     -1.116843      176.6286,-0.98584     0.53955    -0.19275,24.80668      121.0487      75.19804,-0.15393   -0.028229  -0.0056686,-63,5.75,
21:54:35:60,4560,0.029475   0.0097405 -0.00075791     0.99952,0.045532 -0.00032806   -0.041199,-0.05391888     -1.118275      176.6223,0.29199    -0.87354    -0.55322,24.80668      121.0487      75.18981,-0.16235   -0.024582   -0.024155,-61,6.75,
21:54:35:91,4561,0.029454    0.010028  0.00041507     0.99952,-0.0168    0.025955  -0.0051117,0.08140354     -1.147241      176.6233,-0.18152      0.3811    -0.78613,24.80669      121.0487       75.1813,-0.15332   -0.022797   -0.012794,-64,5.75,
21:54:36:22,4562,0.029482   0.0095205 -0.00082333     0.99952,0.0060043    0.047119   0.0061646,-0.06214799     -1.093297      176.6215,-0.04184     -1.5664    -0.66797,24.80669      121.0487      75.17088,-0.17566   -0.028549   -0.032043,-62,6.25,
21:54:36:53,4563,0.02925   0.0066195 -0.00013475     0.99955,0.033234   0.0011063  -0.0032215,0.00675379    -0.7586734      176.6476,-0.55078     0.50635    -0.91406,24.80669      121.0487      75.16776,-0.18994    -0.01683   -0.026657,-66,5.75,
21:54:36:85,4564,0.029526    0.005949 -0.00014341     0.99955,0.035736   -0.019211   0.0019875,0.003702788    -0.6819022      176.6159,0.58496     0.48462      1.8857,24.80669      121.0487      75.13729,-0.16858   -0.019135   -0.021484,-65,5.75,
21:54:37:16,4565,0.029628   0.0084883  1.1206e-05     0.99953,0.0063667  -0.0064812  -0.0077133,0.03010637    -0.9722372       176.604,0.52148    -0.02446     0.58252,24.80669      121.0487      75.18638,-0.15662   -0.024033   -0.011765,-61,6.25,
21:54:37:46,4566,0.029409    0.010886  -0.0011039     0.99951,-0.05304  -0.0034637   0.0073929,-0.08976798     -1.250672      176.6303,-0.14819     -1.0479     0.87793,24.80669      121.0487      75.16576,-0.17407   -0.020889    -0.02034,-61,6.25,
21:54:37:78,4567,0.029571   0.0099298  -0.0010379     0.99951,0.0061188     0.02179    0.016388,-0.08524436     -1.140908      176.6116,-0.19226     0.87109    -0.70947,24.80669      121.0487      75.13972,-0.198   -0.014542   -0.028885,-63,5.5,
21:54:38:08,4568,0.029487   0.0076987 -0.00063522     0.99954,0.012337    0.022949    0.003315,-0.04674864    -0.8839809      176.6208,0.062134     0.87451    -0.39722,24.80669      121.0487      75.13038,-0.20032  -0.0080338   -0.032257,-60,5.5,
21:54:38:40,4569,0.029445   0.0063248  -1.106e-05     0.99955,-0.021652  -0.0021362   -0.031677,0.02007526     -0.724495      176.6252,-0.19202    0.064331     -0.4458,24.80669      121.0487      75.12299,-0.19568   -0.016418   -0.017563,-61,6,
21:54:38:71,4570,0.029892   0.0061113 -0.00038449     0.99953,-0.061646  -0.0045624    0.034607,-0.02310788    -0.7013073      176.5742,-1.1475    -0.19141     0.77734,24.80669      121.0487      75.11428,-0.19336   -0.015259   -0.025192,-63,5.5,
21:54:39:02,4571,0.03008    0.005287 -0.00041701     0.99953,-0.0033035   -0.014297   -0.016891,-0.02954199    -0.6070098      176.5527,-0.00089598    0.033752    -0.37573,24.80669      121.0487      75.09859,-0.20752   -0.018845   -0.028748,-62,6.5,
21:54:39:33,4572,0.029997   0.0033184 -0.00044475     0.99954,0.014008    0.045044  0.00012207,-0.03953592    -0.3816199      176.5621,-0.056366    -0.22449    -0.82568,24.80668      121.0487      75.06624,-0.22253   -0.013702   -0.042419,-64,5.75,
21:54:39:64,4573,0.030315   0.0016407 -0.00055499     0.99954,0.063171  -0.0014105   0.0052872,-0.05786871    -0.1898496      176.5257,0.28271     0.53516       2.082,24.80668      121.0487      75.03361,-0.21606   -0.016953   -0.019485,-65,5,
21:54:39:95,4574,0.030324   0.0032718 -0.00048328     0.99953,-0.01017   -0.018539   -0.026993,-0.04398635    -0.3764246      176.5248,0.61328    -0.47607      0.3728,24.80669      121.0487      75.08749,-0.18127   -0.020203    -0.01545,-65,5.75,
21:54:40:26,4575,0.030176   0.0059559  -0.0012253     0.99953,0.025085    0.012772  -0.0079956,-0.1197575    -0.6864306      176.5422,-0.34326     -1.2285     -1.0938,24.80668      121.0487      75.05125,-0.2113   -0.018539   -0.038879,-65,5.25,
21:54:40:57,4576,0.030317   0.0060378  0.00011978     0.99952,-0.010979    0.017502   -0.024216,0.03469706    -0.6911531      176.5251,0.7627    -0.19739     0.47876,24.80668      121.0487      75.02723,-0.21277   -0.017456   -0.024521,-63,6,
21:54:40:89,4577,0.029996   0.0049231 -5.3033e-05     0.99954,-0.045502    0.012154    0.013161,0.01084838    -0.5640718      176.5621,0.064331       -1.54      0.6582,24.80668      121.0487      75.01624,-0.20996   -0.025131   -0.025452,-65,5.25,
21:54:41:19,4578,0.029797   0.0037537 -0.00035074     0.99955,-0.025665    0.033569    0.005764,-0.0273581    -0.4311459      176.5851,-0.17078     0.48608     -1.0244,24.80669      121.0487      75.03425,-0.20679   -0.010849  -0.0017824,-64,5.75,
21:54:41:51,4579,0.029843   0.0023982 -0.00016543     0.99955,-0.022949     0.01104  -0.0071526,-0.01074754    -0.2752596      176.5798,-0.050476     0.33496    0.095581,24.80668      121.0487      75.04661,-0.19788   -0.009964   0.0032902,-64,5.5,
21:54:41:82,4580,0.029736   0.0035171 -0.00031378     0.99955,-0.050201   -0.008728      0.0448,-0.02395673    -0.4039176      176.5921,-0.30786     0.22449      1.4102,24.80668      121.0487      75.06149,-0.17847   -0.014732    0.015915,-64,6,
21:54:42:13,4581,0.029968   0.0056542 -0.00049464     0.99953,-0.013184  -0.0034103   0.0023746,-0.03724072    -0.6493345      176.5656,0.27148      0.0383    -0.66406,24.80668      121.0487      75.07484,-0.15833   0.0072365     0.01564,-64,5.25,
21:54:42:44,4582,0.030666    0.010228 -0.00054834     0.99948,-0.023407   -0.024353   0.0051041,-0.02686569     -1.173468      176.4855,0.43604     0.60254    -0.52686,24.80669      121.0487      75.07319,-0.13855     0.01738    0.006897,-65,6,
21:54:42:75,4583,0.030711    0.013275 -0.00045675     0.99944,0.014954  -0.0038872  -0.0037346,-0.005594927     -1.522154        176.48,-0.0048904    -0.30078    0.074341,24.80669      121.0487      75.08256,-0.14514  -0.0036564     0.02121,-66,5.25,
21:54:43:06,4584,0.03109    0.014002  0.00028916     0.99942,-0.022934     0.01004    0.008049,0.08303426     -1.602771      176.4352,0.43213     0.87109    -0.38501,24.80669      121.0487      75.08978,-0.15149   0.0087204    0.011696,-69,4.5,
21:54:43:37,4585,0.030803    0.013061  0.00065199     0.99944,-0.017456    0.037933    0.010361,0.120814     -1.493707      176.4678,-0.65283    -0.30591    -0.70166,24.80669      121.0487      75.07761,-0.16162  -0.0018873    0.020508,-66,5.5,
21:54:43:68,4586,0.030478    0.010596 -0.00031778     0.99948,-0.029892     0.01371  0.00097322,0.0006123498      -1.21483      176.5068,0.091125      1.3584    -0.38257,24.80669      121.0487      75.11913,-0.13953    0.016556    0.019638,-63,6,
21:54:44:00,4587,0.031151    0.011735 -0.00083458     0.99945,0.054688  -0.0025425 -0.00093842,-0.05370783     -1.347095      176.4302,0.59277     0.54199       1.418,24.80669      121.0487      75.12798,-0.10803  0.00080061    0.031921,-67,5.5,
21:54:44:31,4588,0.031829    0.013789 -0.00055756      0.9994,0.012001    0.032562  -0.0094757,-0.01356624     -1.581371      176.3519,0.45117    -0.39307     0.25366,24.80669      121.0487      75.10207,-0.11078 -0.00029778    0.010002,-67,5.5,
21:54:44:62,4589,0.031578    0.013675 -0.00090959     0.99941,-0.027466  -0.0013714    0.034576,-0.05470638     -1.569572      176.3812,0.21497    -0.92383      1.6113,24.80669      121.0487      75.08914,-0.10602   -0.001955    0.010658,-64,5.75,
21:54:44:93,4590,0.031452    0.014465 -0.00057754      0.9994,-0.021042   -0.018463  -0.0034752,-0.01401247     -1.658924      176.3951,-0.66699     0.66846    -0.84033,24.80669      121.0487      75.06206,-0.090088     0.01593  -0.0033817,-64,6,
21:54:45:24,4591,0.031932    0.014173    0.001032     0.99939,0.032776    0.032074   -0.021332,0.1701143     -1.619507      176.3375,0.20471     0.36304    -0.32568,24.80669      121.0487      75.05151,-0.095825    0.014885    0.012352,-65,5,
21:54:45:55,4592,0.031609    0.014289  0.00033686      0.9994,-0.026596  -0.0045929    0.033569,0.09037164     -1.635412      176.3756,-1.0381     -1.2783    -0.65234,24.80669      121.0487      75.05129,-0.083801   0.0097885   -0.013908,-67,5.5,
21:54:45:86,4593,0.031741    0.015157  0.00011967     0.99938,0.074829   -0.070618   -0.064087,0.06886595     -1.735628      176.3607,-0.18738      3.3301      2.5879,24.80669      121.0487      75.05241,-0.074219    0.023514    0.024506,-61,5.75,
21:54:46:17,4594,0.029329    0.017851   0.0034738      0.9994,-0.14294    -0.11615    0.051971,0.458116     -2.033127        176.63,-1.0225      2.3594    -0.60596,24.80669      121.0487      75.03812,-0.03241    -0.35205  -0.0035553,-59,6,
21:54:46:48,4595,0.014275    0.028099    0.010318     0.99945,0.068481    -0.13843     0.15613,1.229704     -3.202927      178.3291,0.45288     -2.0273      1.6211,24.80669      121.0487      75.04305,0.017487     -1.0029    0.025558,-56,6.75,
21:54:46:80,4596,-0.0089874    0.036556    0.012675     0.99921,0.26318   -0.035156     0.17249,1.417563       -4.2025     -179.0213,0.68408     -2.2695     0.35547,24.80668      121.0487      75.03906,0.065735     -1.6816    0.025299,-55,6.25,
21:54:47:10,4597,-0.047105    0.029747    0.016081     0.99832,-0.00098991     0.16931     0.25879,1.6824     -3.491995     -174.6484,0.5918    -0.17114      1.2646,24.80668      121.0487      75.03644,0.11615     -2.4121    0.023361,-67,5,
21:54:47:42,4598,-0.084294  -0.0016958    0.014596     0.99633,-0.25537     0.17371     0.10181,1.683073    0.05262463     -170.3273,1.5664     -1.3896     0.20093,24.80667      121.0487      75.04037,0.33081     -3.1797      0.0289,-57,6.25,
21:54:47:73,4599,-0.074202   -0.027706    0.017052     0.99671,0.10822    0.080811    -0.17236,2.186776      3.020896     -171.4271,0.32959     -1.2041    -0.64502,24.80667      121.0487      75.07152,0.51172      -3.918    0.052399,-64,5.25,
21:54:48:04,4600,-0.042852   -0.029355    0.014573     0.99854,0.04361    -0.13452    -0.13123,1.814968      3.289234     -175.0333,-1.541     -0.4187      2.0176,24.80666      121.0487      75.10189,0.46655     -4.7773    0.095032,-51,6.75,
21:54:48:35,4601,-0.024012    -0.02956    0.015936     0.99915,-0.0081329   0.0093384   -0.045715,1.909479      3.342442     -177.1908,-0.41479     -2.2988      1.1514,24.80665      121.0487      75.15727,0.24609     -5.7422     0.10944,-49,6.25,
21:54:48:66,4602,-0.0066026   -0.037476    0.014255     0.99917,0.22217   -0.074524    -0.18396,1.665369      4.284039     -179.1805,-1.3857      -0.896      1.9902,24.80663      121.0487       75.1957,0.18579      -6.375     0.10504,-50,6,
21:54:48:97,4603,0.019683    -0.01985    0.022967     0.99935,0.26392    -0.31714   -0.087891,2.588346      2.325606      177.7958,-2.2168     -5.0234      -2.375,24.80662      121.0487      75.29066,-0.0087814     -7.2852     0.12915,-57,6.75,
21:54:49:28,4604,0.032771 -0.00029315    0.011395      0.9994,-0.51904    -0.13196   -0.073914,1.303959    0.07636299      176.2447,0.49414     -1.5986      5.0938,24.8066      121.0487      75.38084,-0.23645     -8.1484    0.075989,-60,6.5,
21:54:49:60,4605,0.037251    0.027922    0.023608     0.99864,0.6377   -0.078552   0.0012445,2.826057      -3.09604      175.6511,1.0508     -1.1094     0.76465,24.80658      121.0488      75.47112,-0.30835     -8.8828     0.16431,-61,6.25,
21:54:49:91,4606,0.030623    0.040922    0.011217     0.99863,-0.35962    0.044861    0.058746,1.432026     -4.648682       176.429,0.37646     -3.5605    -0.53027,24.80655      121.0488       75.5872,-0.35059     -9.7344     0.14685,-56,6.5,
21:54:50:21,4607,0.021726    0.028355    0.013767     0.99927,-0.18652    0.077942    0.023056,1.649805       -3.2143      177.4626,-2.4121     -4.2734  -0.0089722,24.80653      121.0488      75.64271,-0.268311     -10.4297     0.127197,-57,6.75,
21:54:50:53,4608,0.02296    0.015738    0.019894     0.99941,0.24939     0.12744   -0.069092,2.321491       -1.7503      177.3325,0.35229      -1.708     -2.1855,24.8065      121.0488      75.80537,-0.184814     -11.0469     0.203125,-56,6.5,
21:54:50:84,4609,0.024976    0.022501   0.0099919     0.99938,0.2345   -0.057404    0.019363,1.209974     -2.549062      177.1099,0.81006     0.36401      3.3828,24.80647      121.0488      75.96241,-0.189087     -11.5781      0.17395,-60,6,
21:54:51:15,4610,0.020352    0.015781    0.019671     0.99947,-0.01799     0.25928  -0.0076447,2.291492     -1.761799      177.6317,0.80322     -2.3125    -0.53906,24.80644      121.0488      76.16756,-0.204102     -12.1875     0.244873,-60,5.75,
21:54:51:46,4611,0.020563  -0.0039126    0.019699     0.99959,0.058228     0.22119   -0.070129,2.247831     0.4945948      177.6527,1.3428     -2.0957    -0.57617,24.80641      121.0488      76.29234,-0.189209     -12.7188     0.234985,-67,4.75,
21:54:51:77,4612,0.028016 -0.00066013    0.011029     0.99955,0.28125    0.068665   -0.063293,1.261185     0.1110162      176.7902,-1.4678     -2.2617    -0.39282,24.80638      121.0489      76.51664,-0.266846     -13.1797     0.226563,-57,7,
21:54:52:08,4613,0.031471   0.0028441    0.013846      0.9994,-0.074646   -0.058228  -0.0072517,1.59615    -0.2757886      176.3889,0.3833    0.029846   -0.075867,24.80635      121.0489      76.78839,-0.358398     -13.6641     0.224365,-57,6,
21:54:52:39,4614,0.035218    0.010926    0.013185     0.99923,0.25879    -0.14526  -0.0073509,1.554367     -1.197992      175.9467,0.28198     -0.9248       2.002,24.80631      121.0489      77.03413,-0.377686     -14.0547     0.301025,-60,6,
21:54:52:70,4615,0.034176    0.021892    0.006127     0.99916,-0.07196    0.010124   -0.015358,0.788014     -2.483301      176.0648,-1.4092     -1.7783     0.64941,24.80628      121.0489      77.11745,-0.454102     -14.5469     0.231812,-63,6.5,
21:54:53:01,4616,0.03367    0.022993    0.015823     0.99904,0.40625     0.17603    0.016235,1.902467     -2.572056      176.0967,-0.58398      -2.457      1.5273,24.80624       121.049      77.38757,-0.451172     -14.8906     0.280273,-71,1.5,
21:54:53:32,4617,0.035268    0.024487 -0.00057029     0.99908,-0.20593   -0.060974    0.035828,0.03371414      -2.80689      175.9557,-0.59277     -1.8428      6.7969,24.8062       121.049      77.55387,-0.428467     -15.3125     0.215698,-69,4,
21:54:53:64,4618,0.034991    0.016696    0.015014     0.99914,-0.18762     0.26904    -0.04483,1.787137     -1.851662      175.9596,0.85596    -0.16162     -5.0234,24.80616       121.049      77.81095,-0.410645     -15.6875     0.243896,-69,4.25,
21:54:53:94,4619,0.033304   0.0077035    0.015805     0.99929,-0.24634    0.094421   -0.033875,1.839735    -0.8218375      176.1692,-0.82813    -0.48389     -6.9727,24.80612       121.049      77.96564,-0.383789     -16.0938     0.210327,-63,5.75,
21:54:54:26,4620,0.034391   0.0056061    0.010145     0.99934,0.74365    0.030685    0.027313,1.183976    -0.6020211      176.0519,0.24963     -3.2227      9.6953,24.80608       121.049      78.21817,-0.418701     -16.3281     0.358887,-63,6.25,
21:54:54:57,4621,0.037346   0.0020987   0.0078769     0.99927,-0.075439     0.13489  -0.0068016,0.9109923    -0.2066035      175.7177,0.56152    -0.99463           1,24.80604      121.0491      78.54964,-0.480225     -16.6406      0.24585,-66,5.5,
21:54:54:88,4622,0.043397    0.010303   0.0019867       0.999,-0.35278    -0.19287    -0.03714,0.2787296     -1.169605      175.0224,-0.72607    -0.62549    -0.73096,24.806      121.0491       78.7658,-0.507813     -16.9844     0.204834,-67,5.5,
21:54:55:19,4623,0.044945    0.017092   0.0062307     0.99882,0.011482    -0.10046    0.033875,0.8016585     -1.924539      174.8336,-0.072937     -2.7949    -0.25269,24.80595      121.0491      78.90212,-0.543457     -17.2813     0.113892,-67,6,
21:54:55:50,4624,0.044285    0.022384   0.0048196     0.99876,0.044647    0.042328   -0.041138,0.6658554       -2.5382      174.9076,1.2305    0.087158      1.2012,24.80591      121.0491      79.12045,-0.524902     -17.5313     0.257324,-66,5.5,
21:54:55:81,4625,0.044053    0.028873   0.0074066     0.99858,-0.016159    0.029068   -0.017303,0.9949557     -3.268254      174.9196,-0.95459    -0.81689      2.6289,24.80586      121.0492       79.3253,-0.52002     -17.7813     0.296631,-66,5.25,
21:54:56:12,4626,0.042722    0.028399     0.00688     0.99866,0.41553    0.012169   -0.029526,0.9278641     -3.217971      175.0748,1.6348     -1.0879      3.2715,24.80582      121.0492      79.56016,-0.462158     -17.8906     0.396484,-67,5,
21:54:56:44,4627,0.040102    0.019427   -0.012948     0.99892,-0.51758    0.052887    0.031311,-1.3941     -2.283839      175.4299,-0.0011091      5.0898      0.5498,24.80577      121.0492      79.66634,-0.425049      -17.875     0.159668,-66,5.25,
21:54:56:75,4628,0.039941   0.0066945   0.0015004     0.99918,0.60742    -0.11334     0.11346,0.2024465    -0.7596527      175.4204,-1.5391     -2.2813      5.6641,24.80573      121.0492      79.86605,-0.388428     -17.7969     0.273193,-67,5,
21:54:57:06,4629,0.043941    0.012613  0.00036957     0.99895,-0.43408     -0.2312   -0.028488,0.105848      -1.44212      174.9614,-1.3359     -3.4648      3.1973,24.80568      121.0493      80.04153,-0.401367     -17.8906     0.249023,-68,4.75,
21:54:57:37,4630,0.045084    0.016625   -0.006307     0.99883,-0.076172   -0.043793    0.027695,-0.6363627     -1.935779      174.8419,-0.80127      2.0098     0.20764,24.80564      121.0493      80.18365,-0.417236     -17.7344     0.155884,-74,-1,
21:54:57:68,4631,0.044283    0.011783  -0.0016172     0.99895,-0.42749   -0.025299   -0.017746,-0.125366     -1.357176       174.925,-0.27808     -1.6152      3.5781,24.80559      121.0493      80.28604,-0.379395     -17.7344     0.158813,-74,0,
21:54:57:99,4632,0.046486    0.018606   0.0017337     0.99874,-0.23499    -0.14636   -0.068848,0.2977366     -2.120706      174.6647,0.35254     0.27979     -9.6875,24.80555      121.0493      80.44198,-0.3396     -17.4688      0.17749,-72,2.5,
21:54:58:30,4633,0.043962    0.018464   -0.010499     0.99881,-0.31323     0.08783   0.0039635,-1.109496     -2.166659      174.9805,-0.85986    -0.19556      5.9805,24.8055      121.0494      80.59037,-0.356445     -17.1094     0.275635,-75,-1.25,
21:54:58:92,4635,0.044892    0.017058  -0.0045669     0.99884,0.05542   -0.020599    0.026794,-0.435237     -1.976275      174.8607,0.52832      0.7417      1.1436,24.80542      121.0494      80.52828,-0.330811     -16.5469     0.200439,-76,-1.75,
21:54:59:55,4637,0.048142    0.013057   -0.012566     0.99868,-0.71436    -0.25049    0.012154,-1.366706     -1.563814      174.4989,-0.11908      0.6543     -1.0801,24.80534      121.0495       80.4883,-0.259277     -15.8594   -0.0575867,-77,-4.25,
21:54:59:85,4638,0.054804  0.00023964   -0.010719     0.99849,-0.10333    0.091064   -0.071838,-1.224971   -0.09472828      173.7177,1.1406     0.82813     -1.4365,24.8053      121.0495      80.39414,-0.259033     -15.4844    0.0222015,-75,-0.75,
21:55:00:17,4639,0.051417    0.020568   -0.014169     0.99837,0.011841     0.19873   -0.011612,-1.501377     -2.437291      174.1355,1.4492     0.96289       1.792,24.80526      121.0495      80.28121,-0.287842     -15.1641     0.085083,-73,1.75,
21:55:00:48,4640,0.049987    0.026256   -0.014607      0.9983,-0.31445   -0.031921    0.048798,-1.523034     -3.088751       174.308,1.1758      1.5205      1.9951,24.80522      121.0495      80.18768,-0.204468     -14.7344    0.0328369,-75,-2,
21:55:00:79,4641,0.046888    0.022668  -0.0091418      0.9986,0.20032    0.050323   0.0085983,-0.9253314      -2.64402      174.6448,0.29565      1.4834    -0.23096,24.80518      121.0495      80.07925,-0.11792     -14.2344    0.0796509,-77,-7.5,
21:55:01:10,4642,0.048145    0.029616    -0.00275      0.9984,1.7471   -0.035706    -0.10309,-0.1514981     -3.405483      174.4829,-0.21118    -0.15125      7.1641,24.80515      121.0496      79.97274,0.0343018     -13.6016     0.234253,-74,0.25,
21:55:01:72,4644,0.048344   0.0036526   -0.021366      0.9986,-0.40601      0.1355   -0.096008,-2.425523    -0.5363437      174.4681,5036    0.010192871 -9.6321106e-05,6818368585728      121.0495986938477      79.67582702636719,-0.0426941     -12.7813  -0.00972748,-77,-6.5,
21:55:02:03,4645,0.052567    0.012501    -0.02653     0.99819,-0.2406    -0.02803    0.026428,-2.961724     -1.589916       174.012,-0.4209      3.0566     -2.2793,24.80505      121.0496       79.5369,-0.0762329     -12.2422   -0.0938721,-77,-7,
21:55:02:34,4646,0.054105    0.015181   -0.010932     0.99836,0.058655    -0.12335  0.00053501,-1.15722     -1.804838      173.8141,-0.54248     0.42358     0.25439,24.80502      121.0496      79.42208,-0.0515747     -11.7969    0.0577698,-76,-2,
21:55:02:97,4648,0.053266    0.022586   -0.016667     0.99819,0.13977      0.0233    0.010597,-1.770853     -2.686146      173.9324,2.0156      1.6533     0.26587,24.80496      121.0497      79.07615,0.00151253     -10.9141   0.00372124,-77,-4.25,
21:55:03:28,4649,0.05179    0.028748   -0.016014     0.99812,-0.055206     -0.2312    0.031708,-1.664085      -3.38505      174.1086,0.31104      3.3965      1.0176,24.80493      121.0497      78.93618,0.0950317     -10.4453  0.000505447,-75,-1.75,
21:55:03:59,4650,0.049202    0.031877   -0.019599     0.99809,0.12805    0.027405    0.043732,-2.066746     -3.759053      174.4234,-1.1172    -0.75928      0.4978,24.80491      121.0497      78.81035,0.096558     -9.8828   -0.059998,-75,-0.75,
21:55:03:90,4651,0.045684    0.031713    -0.02067     0.99824,-0.20422   -0.016785    0.029785,-2.203641     -3.738507      174.8314,-1.0146      3.1289         1.5,24.80489      121.0497       78.6831,0.18835     -9.3828   -0.066345,-75,-1,
21:55:04:52,4653,0.043928    0.028997   -0.017055     0.99874,0.15356    0.024246   -0.020844,-1.808419      -3.40464      175.0169,-0.53564      1.8711     -1.6445,24.80484      121.0497      78.32537,0.27905     -8.1719   -0.034576,-77,-10.75,
21:55:04:83,21098,1.597726787648177e+37    0.01909933425486088   -0.01811882108449936     0.9985502362251282,0.15381   0.0051956    -0.03038,1.3698e-37 -1.2995e-37  7.1618e-36,0.17737       2.916     0.68896,24.80482      121.0497      78.17742,1.166       7.918   -0.028854,-77,-8.75,
21:55:05:14,4655,0.04656    0.020788   -0.019525     0.99851,-0.17188    0.053558   -0.010567,-2.125596     -2.483546      174.7066,0.36255     0.34082    -0.35425,24.8048      121.0498      78.12724,0.26074     -7.4336    0.021835,-76,-2,
21:55:05:45,4656,0.044682     0.02203   -0.017017     0.99861,0.04129  -0.0068855   -0.015427,-1.836742     -2.608971       174.918,0.014053  -0.0016346     -0.1026,24.80478      121.0498      78.01472,0.27466          -7    0.047485,-77,-8.5,
21:55:06:07,4658,0.043446    0.028029   -0.013969     0.99857,0.031403  -0.0007019    0.048615,-1.461448     -3.278585      175.0592,0.13062      2.4824       1.582,24.80475      121.0498      77.78632,0.33643     -6.2656    0.059052,-77,-9.25,
21:55:06:39,4659,0.039484    0.026113   -0.015044     0.99877,-0.09014893          -889    0.04650879,-1.606116     -3.058184      175.5151,-0.025543     0.43945    -0.48389,24.80473899841309  1.937898778920036e+21      77.66991424560547,0.37427     -5.9766     0.04007,-78,-10.25,
21:55:06:70,4660,0.035809    0.024686   -0.012266     0.99898,0.032959    -0.04364    0.031952,-1.304622     -2.877491      175.9269,-0.14807     0.12585    -0.71533,24.80473      121.0498      77.52426,0.396     -5.6445     0.03009,-77,-5.75,
21:55:07:01,4661,0.036375    0.026488   -0.015354     0.99887,-0.19751    -0.06665   -0.020981,-1.64968     -3.097345      175.8734,-0.24573     0.59033     -1.0557,24.80471      121.0498      77.39697,0.43506     -5.3438   -0.025497,-77,-9,
21:55:07:63,4663,0.024831    0.038643   -0.011049     0.99888,-0.005619     -0.0159     0.10645,-1.158392     -4.459142      177.1971,-0.35938     0.43408     0.98633,24.80469      121.0498      77.17285,0.50098     -4.6953    0.017639,-76,-3.5,
21:55:08:57,4666,-0.0019857   0.0088682  -0.0060278     0.99994,0.20459   -0.064758     -0.1051,-0.6928342     -1.014843     -179.7663,0.11261     -1.3809     0.26099,24.80466      121.0498      76.92003,0.646      -4.125   0.0086899,-77,-4.5,
21:55:08:87,4667,0.0090043    0.016427  -0.0079464     0.99979,-0.045074    0.058502    0.012962,-0.893979     -1.890532      178.9827,0.93555   -0.025909    -0.33862,24.80465      121.0499      76.85731,0.52686     -4.0078   0.0097351,-76,-3.75,
21:55:09:19,4668,0.0064025    0.021154  -0.0074688     0.99973,0.089294   -0.037811   0.0049744,-0.8408917     -2.429584       179.284,-1.0762     0.89258    -0.35474,24.80464      121.0499      76.75142,0.49683     -3.8203   0.0062866,-77,-6.5,
21:55:09:50,4669,0.0036263    0.024075  -0.0058642     0.99969,0.062469   -0.074768    0.011543,-0.6625615     -2.761393      179.6003,1.1211     -1.9785     0.74121,24.80463      121.0499      76.67865,0.52881     -3.7266    -0.02829,-77,-5.25,
21:55:09:81,4670,-0.0013985    0.024123  -0.0022387     0.99971,-0.15454     0.05072    0.062927,-0.2606309     -2.764209     -179.8334,0.099976      2.1836    -0.94678,24.80462      121.0499      76.61038,0.56982     -3.6055   -0.016403,-77,-5,
21:55:10:12,4671,-0.0064197    0.026968  -0.0053319      0.9996,-0.048523 -0.00027061    0.056152,-0.6315101     -3.086625     -179.2471,-0.02478      1.0928     0.67236,24.80462      121.0499      76.54036,0.56592      -3.459   -0.020935,-76,-2.75,
21:55:10:43,4672,-0.013638     0.02853  -0.0040822     0.99949,0.067017    0.015038   -0.010376,-0.5129717     -3.263001     -178.4219,1.3008     -1.8711      0.6416,24.80461      121.0499      76.43926,0.6167     -3.3086   -0.031494,-76,-3.5,
21:55:10:74,4673,-0.026192    0.024349  -0.0029113     0.99936,0.079346      0.1748      0.1416,-0.4069617     -2.780759     -176.9875,0.18335      1.1484     0.41919,24.80460166931152  1.055813188144052e-27       -334943360122880,-0.0354  -0.0036011  4.0293e-05,-77,-11.25,
21:55:11:05,4674,-0.038667   0.0080813 -0.00086733     0.99922,-0.044861   -0.013977   -0.039795,-0.1351364    -0.9215183     -175.5668,-0.80908      1.7607     -1.5459,24.8046      121.0499       76.3109,0.64014     -3.0156   -0.050293,-76,-4.75,
21:55:11:36,4675,-0.025352   0.0048213   0.0011807     0.99967,0.045349   -0.030212    -0.16199,0.1212564    -0.5557327     -177.0951,-0.28711    -0.96436      -1.001,24.80459      121.0499      76.23982,0.63477     -2.8574   -0.071289,-77,-5,
21:55:11:67,4676,-0.0058054   0.0094852  -0.0027466     0.99993,-0.00085878   -0.014084   -0.093811,-0.3210846     -1.085093     -179.3317,-0.57471      0.7998     0.32861,24.80458      121.0499      76.16378,0.53857     -2.6777   -0.057098,-76,-4.5,
21:55:11:98,4677,0.0075994    0.013994  -0.0035731     0.99987,-0.23547   -0.027512   -0.058136,-0.3973716     -1.606658      179.1346,-0.38037      1.1357     0.56592,24.80458      121.0499      76.09002,0.45508     -2.5801   -0.078369,-76,-2,
21:55:12:30,4678,0.012038    0.014801   0.0053131      0.9998,0.27222    0.031189   -0.011948,0.629416     -1.688598      178.6111,-0.58252     0.15393     0.30933,24.80457      121.0499      76.03732,0.39258     -2.4219   -0.046082,-77,-3.25,
21:55:12:60,4679,0.015131     0.01369  -0.0060448     0.99977,-0.23499    0.010406   -0.010422,-0.6690541     -1.579049       178.275,-0.17224      1.8594      1.4043,24.80457      121.0499      76.02206,0.3584     -2.3262   -0.045044,-75,-1.5,
21:55:12:92,4680,0.017418   0.0084466  -0.0049514      0.9998,-0.009819    0.030365    0.005455,-0.5505064    -0.9776464      178.0085,0.26489      1.8506     -1.3857,24.80456      121.0499      75.98856,0.28052     -2.1367  -0.0052643,-76,-3.75,
21:55:13:23,4681,0.031301   0.0091432   0.0022011     0.99947,-0.022842   -0.023178    -0.13135,0.2849394     -1.039331      176.4098,-0.019287      1.6973    -0.30566,24.80456      121.0499      75.96132,0.29468     -2.0391   -0.023804,-76,-3.5,
21:55:13:54,4682,0.048239     0.01876  -0.0041794     0.99865,0.0043945   -0.066101    -0.11609,-0.37485     -2.170516      174.4761,0.46655      3.2129     0.75391,24.80455      121.0499      75.94196,0.26929     -1.9238   -0.013275,-77,-5.5,
21:55:13:85,4683,0.050998    0.025413    -0.00472     0.99836,0.047394   -0.014885  0.00080109,-0.3919957      -2.93618      174.1616,-0.027237      1.5742     -0.4165,24.80455      121.0499      75.93265,0.22107     -1.8027   0.0094223,-75,-1.25,
21:55:14:16,4684,0.041343    0.025663  -0.0029631     0.99881,-0.078613    0.026215    0.092346,-0.217851     -2.952622      175.2651,0.28906     0.58691     -1.0459,24.80454      121.0499      75.92452,0.1991     -1.6865    -0.01017,-76,-4.5,
21:55:14:47,4685,0.024269    0.016871  -0.0028207     0.99956,-0.017761     0.12134    0.098328,-0.2763237      -1.94061       177.223,0.90527    -0.65479      -1.791,24.80454      121.0499      75.87974,0.19312     -1.5576   -0.037872,-77,-7.5,
21:55:14:78,4686,0.013018   0.0079915  -0.0016434     0.99988,0.11023    0.052948    0.028244,-0.176397    -0.9181456      178.5095,0.48267       0.604      1.2002,24.80454      121.0499      75.85454,0.23987     -1.4082  -0.0085754,-77,-3.75,
21:55:15:09,4687,0.015552   0.0053353  -0.0054446     0.99985,0.10724    0.079834  -0.0058479,-0.6143546    -0.6209989       178.221,-0.172     0.90479   -0.069519,24.80453      121.0499      75.84144,0.22522     -1.2334  -0.0063744,-77,-4.5,
21:55:15:41,4688,0.024733  -0.0036798  -0.0044493     0.99968,-0.016983     0.12061   -0.065796,-0.5201327     0.4089262      177.1636,0.65967    -0.64648     0.45679,24.80453      121.0499      75.83723,0.16309    -0.97559     0.04129,-77,-6.25,
21:55:15:72,4689,0.034263  -0.0044176  -0.0090514     0.99936,-0.045319   -0.065552   -0.076904,-1.05399     0.4703648      176.0684,1.2773      1.3857    -0.14917,24.80453      121.0499      75.78434,0.25977    -0.64014   -0.040894,-76,-4.25,
21:55:16:03,4690,0.040312   0.0027895  -0.0041445     0.99917,-0.0015812   -0.015427   -0.021164,-0.4616555    -0.3385335      175.3807,0.71924     0.01104    -0.58008,24.80453      121.0499      75.76589,0.25928    -0.36572   -0.053925,-76,-2.75,
21:55:16:34,4691,0.042729   0.0055836  -0.0070219     0.99905,-0.066284  -0.0028114   -0.019409,-0.7766156    -0.6736225      175.1065,-0.46191      1.7285    -0.34912,24.80453      121.0499       75.7532,0.18665    -0.16479   -0.027954,-76,-3,
21:55:16:65,4692,0.043355 -0.00043854  -0.0042021     0.99905,-0.092834   -0.030777    0.014069,-0.4832552    0.02932832      175.0301,-0.49536     0.86328      1.7695,24.80453      121.0499      75.74123,0.18335    -0.10852    -0.01918,-76,-2,
21:55:16:96,4693,0.044297  -0.0087748   -0.001455     0.99898,0.034821    0.010757   -0.014915,-0.2111356      0.997155      174.9202,0.48682    -0.47241    -0.27466,24.80453      121.0499      75.72572,0.17029   -0.083618    -0.01236,-76,-2,
21:55:17:27,4694,0.044732   -0.006828  -0.0023435     0.99897,-0.034546   -0.035858  -0.0018349,-0.3032984     0.7696385      174.8702,-0.066345     0.74463     0.26318,24.80453      121.0499      75.70897,0.20593    -0.07489   -0.023239,-76,-2,
21:55:17:58,4695,0.045284 -4.1037e-05  -0.0013491     0.99897,-0.022964   -0.060486  -0.0098877,-0.1546502   -0.00230299      174.8091,0.073853     0.46948      1.3623,24.80453      121.0499      75.69814,0.21545   -0.077515   -0.015854,-76,-2.25,
21:55:17:89,4696,0.045564   0.0075038  -0.0014093     0.99899,-0.016327   -0.039978    0.011215,-0.1221498    -0.8662925      174.7781,-0.072327    -0.44165    -0.20569,24.80453      121.0499      75.68682,0.20203   -0.068359   -0.027283,-76,-2.75,
21:55:18:20,4697,0.045773    0.015766  -0.0014118     0.99883,0.048584   -0.037506   -0.013634,-0.07892931     -1.812212      174.7535,0.56104    -0.77002     0.13513,24.80453      121.0499      75.66882,0.17822   -0.064453   -0.011032,-76,-2.5,
21:55:18:51,4698,0.045639    0.019749  -0.0017893     0.99876,-0.012184   -0.022217   -0.020126,-0.1015845     -2.270206      174.7694,-0.069702      0.1676     0.44385,24.80453      121.0499      75.65418,0.14844   -0.049408   -0.017853,-76,-2.75,
21:55:18:83,4699,0.045416    0.017346  -0.0017102     0.99882,0.049927    0.019699  -0.0058632,-0.1055277     -1.994649      174.7949,0.25977    -0.19336    -0.15063,24.80453      121.0499      75.63978,0.12396   -0.035217   -0.024628,-76,-2.5,
21:55:19:14,4700,0.045511     0.02003 -0.00062601     0.99876,0.10242    0.014091   0.0055275,0.03284116     -2.296351      174.7813,0.47534    -0.60156     0.53467,24.80453      121.0499      75.62721,0.15125    -0.03717    0.011429,-75,-2.5,
21:55:19:45,4701,0.046112    0.027076 -0.00094873     0.99857,-0.042175    0.019791   0.0064163,0.03456279     -3.104823      174.7112,-0.2384    -0.60156    -0.11743,24.80453      121.0499      75.60762,0.11127   -0.038391   -0.011421,-76,-3,
21:55:19:76,4702,0.045969    0.024312  -0.0021506     0.99864,0.011131    0.035034    0.015991,-0.118175     -2.794667      174.7318,0.17346     0.50439      1.6367,24.80453      121.0499      75.60921,0.05365   -0.019882   0.0028152,-76,-2.75,
21:55:20:07,4703,0.04587    0.018774  -0.0035558     0.99876,-0.0045433    0.022827   -0.024048,-0.3084985     -2.167871      174.7467,0.64795    -0.26855     0.12744,24.80453      121.0499      75.59962,0.057129  -0.0078964   -0.020569,-76,-2.5,
21:55:20:38,4704,0.046164    0.018813 -0.00062178     0.99876,0.082153  -0.0097733   -0.021072,0.02838004     -2.156958      174.7066,0.06958     -1.7012    0.012466,24.80453      121.0499      75.58914,0.084717   0.0015936   -0.016617,-76,-3,
21:55:20:69,4705,0.046099    0.018381  -0.0010291     0.99877,-0.0016737    0.015434    0.016449,-0.02069888     -2.109639      174.7151,-0.27612    -0.31641      -1.251,24.80453      121.0499      75.58205,0.039917  0.00092077    -0.02034,-76,-2,
21:55:21:00,4706,0.046177    0.015632  -0.0014596     0.99881,-0.041473    0.016617  -0.0043106,-0.08438204     -1.797142      174.7072,0.0084381     -1.3271     0.60742,24.80453      121.0499      75.58265,0.039703   0.0028667   -0.012856,-76,-2,
21:55:21:32,4707,0.04619    0.014825  -0.0013201     0.99882,0.023941  -0.0014315    0.015305,-0.07266085     -1.704034      174.7056,-0.29443    -0.23584     -1.2256,24.80453      121.0499      75.59547,0.05188    0.021332   -0.015213,-76,-1.75,
21:55:21:62,4708,0.046123    0.015425   -0.001535     0.99882,-0.033813    -0.01004   -0.010872,-0.09420829     -1.773857      174.7137,-0.29321      -1.166     0.39111,24.80453      121.0499      75.60578,0.043335    0.019974  -0.0016603,-76,-2.25,
21:55:21:93,4709,0.046286    0.016063  -0.0011683      0.9988,-0.0087585  -0.0053062  -0.0086746,-0.04854424     -1.844982      174.6942,0.038116    -0.55029    -0.88672,24.80453      121.0499      75.59655,0.031738    0.030167   -0.006321,-76,-2.25,
21:55:22:25,4710,0.04638    0.015527  -0.0012918      0.9988,0.0029716    0.029526   0.0058594,-0.06536244     -1.784276      174.6837,0.55273    -0.37549     0.11169,24.80453      121.0499      75.59398,0.028046    0.028122   0.0072632,-76,-2.5,
21:55:22:55,4711,0.046065    0.014875  -0.0010708     0.99883,0.044678  -0.0092545   -0.043396,-0.04406589     -1.708416      174.7195,0.22339    -0.10999    -0.51611,24.80453      121.0499      75.60275,0.025497    0.045227     -0.0056,-76,-2.25,
21:55:22:87,4712,0.046267    0.015076 -0.00069694     0.99882,-0.014458     0.01506  -0.0084991,0.0001586574     -1.729444      174.6957,-0.25732    -0.74316     -1.2656,24.80453      121.0499      75.60722,0.026047    0.040405   0.0086441,-76,-2.25,
21:55:23:18,4713,0.046345     0.01402   -0.001101     0.99883,0.0071602   0.0080719   -0.012886,-0.05157748      -1.61072      174.6875,0.019791       0.625     0.15747,24.80453      121.0499      75.61247,0.010399    0.056244   0.0069275,-76,-2.5,
21:55:23:49,4714,0.046286    0.012747 -0.00076631     0.99885,-0.047729   0.0012426    0.020691,-0.02010745     -1.463256      174.6939,-0.44434    -0.36206      1.3203,24.80453      121.0499      75.60649,0.016312    0.050476    0.013351,-76,-2.25,
21:55:23:80,4715,0.046387    0.013282 -0.00039573     0.99884,-0.0091858  -0.0016851    0.013367,0.02531429     -1.522463      174.6817,-0.19214      1.2803     -1.5557,24.80453      121.0499      75.60878,0.020981    0.063965   -0.001565,-76,-2,
21:55:24:11,4716,0.04638    0.013502  -0.0007697     0.99883,-0.015823    0.010849   0.0048447,-0.01634283     -1.549711      174.6831,0.62012     0.43848     0.34668,24.80453      121.0499       75.6132,0.025162    0.070679   0.0023003,-76,-2.25,
21:55:24:42,4717,0.046339     0.01344 -0.00069497     0.99884,-0.00021422   0.0049553    0.023834,-0.008181463     -1.542166      174.6876,-0.98047     0.90234     -1.2354,24.80453      121.0499      75.59958,0.0085983     0.06604  -0.0045166,-76,-2,
21:55:24:73,4718,0.046405    0.013482  -0.0012136     0.99883,0.031204     0.02034   0.0065727,-0.06724012     -1.549806      174.6809,-0.24268    -0.70996    -0.30151,24.80453      121.0499      75.60659,0.011925    0.066772  -0.0046806,-76,-2.75,
21:55:25:04,4719,0.046474    0.013856 -0.00090515     0.99882,-0.012566   0.0043602     0.01973,-0.0298201     -1.590965      174.6724,0.18579    -0.80322      0.2522,24.80453      121.0499      75.60512,0.013588    0.067871  -0.0067673,-76,-2.25,
21:55:25:35,4720,0.046531    0.014217 -0.00076477     0.99882,0.0061798  9.1374e-05   -0.020416,-0.01173106     -1.631523      174.6656,0.18359     -1.7627     0.36621,24.80453      121.0499      75.60325,0.0098038    0.065674  -0.0045929,-76,-2.5,
21:55:25:66,4721,0.046186    0.014025  -0.0010112     0.99883,0.080322  -0.0064697   -0.015228,-0.04153377     -1.610815      174.7057,0.13733     0.38818     0.39526,24.80453      121.0499      75.61095,0.0043144    0.070435    0.018936,-76,-3,
21:55:25:98,4722,0.046593    0.013784 -0.00075075     0.99882,0.034454   -0.010193   -0.011543,-0.01233827     -1.581879      174.6586,0.25366   -0.068604    -0.53369,24.80453      121.0499      75.61432,0.0032368     0.07428  -0.0047951,-76,-3,
21:55:26:28,4723,0.046555    0.013869 -0.00089678     0.99882,0.033661    0.027313    0.014236,-0.02866568     -1.592342      174.6631,-0.087097    -0.88428    -0.89111,24.80453      121.0499      75.61914,0.0049095    0.077698      -0.013,-76,-2.75,
21:55:26:60,4724,0.04656    0.013902 -0.00038447     0.99882,0.0056572  -0.0026264   -0.020157,0.03017758     -1.593393      174.6617,-0.10455     0.55322     -1.1719,24.80453      121.0499      75.62084,0.0013952    0.080505  -0.0074501,-76,-3.25,
21:55:26:91,4725,0.046513    0.013618  -0.0008945     0.99882,-0.03949  -0.0023537    0.021545,-0.02980928     -1.563633       174.668,-0.38306     0.49756    -0.40039,24.80453      121.0499      75.61737,-0.00041199    0.080383   -0.011414,-76,-3,
21:55:27:22,4726,0.046461    0.014228  -0.0011235     0.99882,-0.010025    -0.01281    0.011688,-0.05286295     -1.634734      174.6742,-0.25684      1.1113      1.7031,24.80453      121.0499      75.62773,0.0059662    0.081238   0.0054779,-77,-3.5,
21:55:27:53,4727,0.046676    0.014873  -0.0010262      0.9988,0.0094757   0.0049286    0.022446,-0.03791698     -1.707957      174.6493,-0.1925    -0.17004    -0.61035,24.80453      121.0499      75.62007,0.00061941    0.077454   -0.015793,-76,-3.5,
21:55:27:84,4728,0.04649    0.014577  -0.0013053     0.99881,-0.0034389  -0.0034447   -0.027542,-0.07177351      -1.67565      174.6711,-0.13965     -1.4668    -0.20801,24.80453      121.0499      75.64297,-0.0044556    0.076965   -0.005928,-76,-2.75,
21:55:28:15,4729,0.046651     0.01391 -0.00073327     0.99881,0.027725  -0.0040894     0.02153,-0.009570437     -1.596231      174.6519,-0.26978    -0.12537    -0.66602,24.80453      121.0499      75.66521,-0.0084991     0.08252   0.0069275,-76,-3.25,
21:55:28:46,4730,0.046497    0.013571 -0.00085623     0.99883,-0.0081024   0.0029678  -0.0033054,-0.02570186     -1.558051      174.6697,0.08429     0.51807    -0.69482,24.80453      121.0499      75.67519,-0.0034618    0.092102   0.0074768,-76,-3.5,
21:55:28:77,4731,0.046698    0.013802  -0.0007761     0.99881,0.04892   0.0027447    0.029343,-0.01497495     -1.584111      174.6465,0.21594     0.73096      2.1797,24.80453      121.0499      75.68494,-0.0047836    0.087036    0.026672,-76,-3,
21:55:29:08,4732,0.046728    0.013788 -0.00071356     0.99881,0.023956  -0.0046997   -0.010361,-0.007842891     -1.582138       174.643,0.49902    -0.45605   -0.047485,24.80453      121.0499       75.6908,-0.0033512    0.086792    0.010216,-76,-3.25,
21:55:29:39,4733,0.0466     0.01379 -0.00072466     0.99882,0.024353    0.013245  0.00079441,-0.009310022     -1.582373      174.6577,-0.10986    -0.76611     -0.7041,24.80453      121.0499      75.69699,-0.0066757    0.085327    0.005867,-76,-3.25,
21:55:29:71,4734,0.046813    0.013811 -0.00082412     0.99881,0.071533    0.014313    0.018936,-0.02024617     -1.585331      174.6335,0.82617     0.29077      1.3301,24.80453      121.0499      75.69437,-0.0032616    0.085999    0.018402,-76,-3.25,
21:55:30:02,4735,0.046623    0.013881  -0.0006278     0.99882,-0.005764  -0.0039864    0.016663,0.002307808     -1.592364      174.6549,-0.16992    -0.62939     0.45947,24.80453      121.0499      75.70557,-0.0076523    0.086853   0.0069427,-76,-2.5,
21:55:30:33,4736,0.046716    0.014124  -0.0010731     0.99881,-0.040802   -0.012375   0.0041618,-0.04722343     -1.622563      174.6449,-0.18982     0.62891    -0.75293,24.80453      121.0499      75.69313,-0.0067787    0.099365  -0.0091095,-76,-2.75,
21:55:30:64,4737,0.047005    0.014325  -0.0013224     0.99879,-0.0224    0.025436   0.0043716,-0.07421585     -1.646938      174.6121,0.1131     -1.8584     0.21204,24.80453      121.0499      75.70705,-0.0045776    0.091064    0.013191,-76,-3,
21:55:30:95,4738,0.046802    0.014286 -0.00087102      0.9988,0.033142   -0.013329    -0.01474,-0.02308344      -1.63999      174.6347,-0.0064507     0.69531    -0.76611,24.80453      121.0499      75.73525,-0.0091095    0.097107    0.027786,-76,-3,
21:55:31:26,4739,0.046715    0.013921 -0.00091451     0.99881,0.029678   0.0058174  -0.0018616,-0.03016305     -1.598394      174.6448,-0.15759     0.39453    -0.55859,24.80453      121.0499       75.7526,-0.010368     0.10352     0.02124,-76,-3.5,
21:55:31:57,4740,0.046968    0.014173 -0.00042588      0.9988,-0.049103    0.015823    0.028778,0.02754564     -1.624608       174.615,0.055084     -0.7124    -0.19604,24.80454      121.0499      75.76327,-0.0078125    0.094543     0.02565,-76,-3,
21:55:31:88,4741,0.046808     0.01385  -0.0003081     0.99881,0.007267    0.035675    0.036743,0.03904307     -1.587097      174.6331,-0.40186     0.49902    -0.66553,24.80454      121.0499      75.77828,-0.014145    0.098328    0.029816,-77,-3,
21:55:32:19,4742,0.046762    0.013205  -0.0013134     0.99882,0.033264   0.0099564    -0.01973,-0.07959749     -1.518597      174.6401,0.35425     0.24829    -0.44702,24.80454      121.0499      75.79276,-0.0085678    0.096375    0.011711,-76,-3.5,
21:55:32:50,4743,0.046889    0.012654 -0.00034996     0.99882,-0.0039978    0.036987   0.0015965,0.02794512     -1.450358      174.6241,-0.21448    -0.26855    -0.46362,24.80454      121.0499      75.80032,-0.012108    0.090027    0.029648,-76,-3.25,
21:55:32:82,4744,0.04682    0.011707 -0.00022236     0.99883,-0.034882    0.014893     0.01947,0.03736921     -1.341264       174.632,-0.42676     0.34766    -0.34106,24.80454      121.0499      75.80817,-0.01458    0.098938    0.013062,-77,-3,
21:55:33:13,4745,0.046674    0.011531 -0.00061065     0.99884,0.0021019   0.0071259  0.00014353,-0.008224901     -1.323184      174.6494,-0.085022     0.42114     0.54443,24.80454      121.0499      75.82249,-0.0088806    0.086121    0.030945,-76,-3.25,
21:55:33:44,4746,0.046831    0.011722 -0.00085659     0.99883,0.026108  -0.0032845  -0.0010843,-0.03514941     -1.346353      174.6316,0.2168     0.41919    -0.45239,24.80454      121.0499      75.83238,-0.0057983    0.093994   0.0060158,-76,-2.5,
21:55:33:75,4747,0.046872    0.012818 -6.9708e-05     0.99882,0.023636   0.0073662  -0.0078125,0.0608889     -1.467651      174.6257,-0.14807      0.3645    -0.88867,24.80454      121.0499      75.83023,-0.00058222    0.083618   0.0085068,-76,-2.75,
21:55:34:06,4748,0.04664    0.013721 -0.00078528     0.99882,-0.0062332  -0.0041428   0.0056114,-0.0165545     -1.574815      174.6532,-0.59766     -0.8418    -0.38867,24.80454      121.0499       75.8367,-0.0070381    0.083557 -0.00091171,-76,-3,
21:55:34:37,4749,0.046981    0.013781 -0.00038737      0.9988,0.0027065   0.0006218   0.0019464,0.02986694     -1.579554      174.6134,-0.38281      1.0752     -1.3506,24.80454      121.0499      75.83688,-0.0038071    0.079041   0.0083694,-76,-3.25,
21:55:34:68,4750,0.046539    0.013385  -0.0002876     0.99883,0.016571    0.023697  2.3186e-05,0.03847799     -1.533722       174.664,-0.084473     -1.3594    -0.60547,24.80454      121.0499      75.84922,-0.015213    0.079285  -0.0054893,-76,-3.25,
21:55:35:00,4751,0.046721    0.013515 -0.00050381     0.99882,-0.020721     0.01358   -0.011208,0.01469995     -1.549783      174.6435,-0.61475     0.77393     -1.2412,24.80454      121.0499      75.83279,-0.012238    0.074158  -0.0084915,-76,-3,
21:55:35:30,4752,0.046924    0.013275  -0.0007338     0.99881,0.0083466    0.047455   0.0077972,-0.01260915     -1.523559      174.6206,-0.14282     0.71533    -0.19397,24.80454      121.0499      75.83404,-0.0089264    0.084778   -0.012924,-76,-2.75,
21:55:35:62,4753,0.046962    0.013732 -0.00085343      0.9988,-0.015137   0.0011806   -0.040924,-0.02378796     -1.576514      174.6164,0.21106     0.26294    -0.83789,24.80454      121.0499      75.82929,0.00077343    0.074707  -0.0053215,-76,-3,
21:55:35:93,4754,0.046785    0.014135  -0.0012288      0.9988,-0.016693 -0.00072002   -0.010284,-0.06488988     -1.624677      174.6372,-0.30884     0.48242   -0.034546,24.80454      121.0499       75.8293,-0.0020428    0.067505   -0.009758,-76,-3,
21:55:36:24,4755,0.046962    0.014557  -0.0012434     0.99879,0.0030231  -0.0025539    0.022339,-0.06400377     -1.672971      174.6169,-0.01474     0.77148      1.7549,24.80454      121.0499      75.82206,0.00086641    0.067505   0.0068703,-76,-3,
21:55:36:55,4756,0.046891    0.014975 -0.00072975     0.99879,-0.025269  -0.0080414  4.0233e-05,-0.003059886     -1.718066      174.6242,-0.11609   -0.023285   -0.019684,24.80454      121.0499      75.80135,-0.002739     0.06781   -0.014153,-77,-3.5,
21:55:36:86,4757,0.04701    0.014539  -0.0012001     0.99879,-0.0080872    0.013191    0.003336,-0.05905708     -1.670697      174.6113,-0.43921     -1.6357    -0.21448,24.80454      121.0499      75.80122,-0.0050812    0.056671   -0.015503,-77,-3.25,
21:55:37:17,4758,0.047127    0.014682  -0.0010899     0.99878,0.02861   -0.014404  -0.0049706,-0.0454703     -1.686486      174.5977,-0.18176     0.37476    -0.93066,24.80454      121.0499      75.81245,0.0018044     0.05722  -0.0048256,-76,-3.25,
21:55:37:48,4759,0.047021    0.014948  -0.0013536     0.99878,0.05072   -0.011009  -0.0068359,-0.07441467     -1.718408      174.6103,0.63965     0.46118      1.7666,24.80454      121.0499      75.81962,0.0055695    0.057495    0.012787,-76,-3.5,
21:55:37:79,4760,0.047112    0.014278  -0.0007072     0.99879,-0.0092926    0.021973   0.0044022,-0.0038597     -1.638198      174.5988,-0.015671     0.14746     0.28809,24.80454      121.0499      75.81887,0.0010309    0.059967   0.0007863,-76,-3,
21:55:38:10,4761,0.047282     0.01405  -0.0013528     0.99878,0.032959    0.019836    0.021469,-0.07873419     -1.615582      174.5804,0.57031     0.38428       1.373,24.80454      121.0499      75.81424,0.0056763    0.055939   0.0099182,-76,-2.75,
21:55:38:42,4762,0.047048    0.013712  -0.0012725      0.9988,-0.02507   -0.013054   -0.011055,-0.07174602     -1.576503      174.6071,-0.48413     0.60352    -0.52588,24.80454      121.0499      75.80673,0.0022526    0.056061   -0.003231,-77,-2.75,
21:55:38:73,4763,0.047002    0.013498  -0.0016507      0.9988,0.099976   0.0091858   0.0015707,-0.1162667     -1.554005      174.6131,-1.0264      1.2061    -0.71143,24.80454      121.0499      75.80367,0.0037746    0.053894  0.00029325,-76,-2.75,
21:55:39:04,4764,0.047311    0.013623 -0.00036793     0.99879,-0.040283    0.019867    0.031372,0.03176046     -1.561419      174.5755,-0.27197     -2.2285    -0.37085,24.80454      121.0499      75.79862,0.0077629    0.013123  -0.0095825,-76,-3,
21:55:39:35,4765,0.048529    0.014061   0.0016787     0.99872,-0.040222   -0.033112    -0.04599,0.2704151     -1.600073      174.4325,0.79883     0.27344       1.459,24.80454      121.0499      75.79273,0.0026131    -0.14551    -0.00284,-76,-2.5,
21:55:39:66,4766,0.051561    0.015091   0.0051221     0.99854,0.14063    0.037292   -0.012749,0.6755692     -1.696728      174.0782,0.67529     -1.9316      1.3535,24.80454      121.0499      75.76881,-0.026474    -0.48608  -0.0020332,-76,-2.75,
21:55:39:97,4767,0.053457    0.014407   0.0028924     0.99846,-0.043732   -0.032959    0.032562,0.4193627     -1.630937      173.8648,1.2314      3.7988      1.1152,24.80454      121.0499      75.74614,-0.046814    -0.91748   -0.049927,-76,-4.25,
21:55:40:28,4768,0.056708    0.015272    0.007918     0.99824,0.02684  -0.0090256   -0.034088,1.005477     -1.695751      173.4824,-1.6143     -5.9844     -2.6211,24.80453      121.0499      75.74966,-0.11908     -1.4678   -0.031204,-76,-4,
21:55:40:59,4769,0.057988    0.019112   0.0068195     0.99811,-0.04953  -0.0091019   -0.082642,0.9076532     -2.141086       173.333,2.4004      1.2598      2.0156,24.80453      121.0499      75.76372,-0.13538     -1.9746  -0.0013323,-76,-3.5,
21:55:40:90,4770,0.060166    0.019296   0.0074245     0.99797,0.20813     0.14319    0.082642,0.982851     -2.156052      173.0813,-0.7373    -0.48926     0.12341,24.80453      121.0499       75.7912,-0.18445     -2.4648     0.03299,-77,-8.5,
21:55:41:21,4771,0.06035    0.022875   0.0090819     0.99787,-0.10742   -0.055878   -0.072998,1.197967     -2.553757      173.0514,1.4639     -5.3242     0.10736,24.80452      121.0499      75.80243,-0.23401      -3.043    0.016113,-77,-3.25,
21:55:41:52,4772,0.055263    0.021827    0.014128     0.99813,0.014557   -0.061462     0.11401,1.755981     -2.407777       173.625,-1.6787     -5.4219    -0.99316,24.80451      121.0499      75.82226,-0.24451      -3.584    0.025558,-76,-0.75,
21:55:41:83,4773,0.046238     0.01155   0.0050037     0.99885,-0.097107     0.14905     0.12634,0.6341033     -1.295652       174.692,-1.1533      2.1504   -0.015625,24.8045      121.0499      75.87188,-0.28662     -4.0859    0.053131,-76,-3.5,
21:55:42:15,4774,0.050326   0.0045399    0.012813     0.99864,-0.078247     0.10492   -0.034607,1.492605    -0.4456452      174.2243,0.87842     -1.0801     0.30493,24.80449      121.0499      75.91158,-0.28638     -4.6328    0.044556,-77,-5.25,
21:55:42:46,4775,0.059867   0.0048727   0.0073618     0.99817,-0.17773    0.021774   -0.083313,0.8755557    -0.5068531      173.1315,1.0156     -1.3535     0.53613,24.80448        121.05      75.94265,-0.32886      -5.125    0.045563,-75,-1.25,
21:55:42:77,4776,0.063571   0.0082954   0.0074626     0.99792,0.18127   -0.067383    0.017532,0.9139432    -0.8942699      172.7028,1.1689      1.2109      2.5723,24.80446        121.05      75.98775,-0.40186     -5.4648     0.10443,-75,-1.25,
21:55:43:08,4777,0.065202   0.0085262   0.0087522      0.9978,-0.081177   0.0099106   -0.028687,1.064616    -0.9095238      172.5141,-0.02446   -0.024216    -0.46948,24.80445        121.05      76.06861,-0.47827     -5.8867    0.096008,-77,-9.75,
21:55:43:39,4778,0.067616    0.010459    0.016125     0.99753,0.2135  -0.0011673    0.014572,1.924905     -1.070676      172.2265,0.45776    -0.35181     -1.5928,24.80444        121.05      76.17654,-0.48804     -6.2695    0.089478,-76,-2,
21:55:43:70,4779,0.068965    0.014039    0.008145     0.99749,-0.12488   -0.013809    0.013565,1.042381     -1.540506      172.0759,0.61328      1.3896     0.97998,24.80442        121.05      76.24695,-0.51709     -6.6875      0.1134,-76,-4.75,
21:55:44:01,4780,0.067878    0.016847    0.014146     0.99745,0.11646   -0.045959    0.032654,1.749022     -1.815836      172.1861,-1.4033     -4.1992    -0.37964,24.8044        121.05      76.37835,-0.55176     -7.0938     0.13037,-76,-1.25,
21:55:44:32,4781,0.066241    0.012987   0.0074086     0.99769,-0.32031   -0.017914   -0.020126,0.9459169     -1.428626      172.3912,-1.0635     -2.7539     0.13062,24.80438        121.05      76.48792,-0.57813     -7.5156     0.12158,-76,-2.75,
21:55:44:63,4782,0.067468   0.0069899     0.01008     0.99765,0.15417    0.056854 -0.00030422,1.20657    -0.7211909      172.2546,-1.5547     -2.1211     -1.6689,24.80436        121.05      76.62064,-0.60742     -7.7969      0.1571,-77,-7.75,
21:55:44:94,4783,0.072176   0.0050161    0.018648     0.99721,-0.014015   -0.021957   -0.013992,2.17301    -0.4189631      171.7125,-1.6621     -4.4297     -1.1504,24.80434        121.05      76.68481,-0.65283     -8.2188     0.12048,-75,-2.25,
21:55:45:25,4784,0.07856   0.0082749 -0.00086148     0.99687,-0.14624    -0.10162    -0.02034,-0.02392045    -0.9530726      170.9883,-1.3535    -0.82227      1.5918,24.80432        121.05      76.78109,-0.71631     -8.4844      0.1405,-75,-2,
54:167:42:234,21753,1.076806990786307e+35    0.01156755816191435    0.02999649941921234  1.190183853848764e+27,-0.19543    0.015236  -0.0026932,1.231e-35  3.1922e-35  1.2666e-06,-0.000397444     -52.1875    -0.286133,30.9058780670166      80.80005645751953          -536266342400,-2948         128.25          -8044,-77,-6.25,
21:55:45:87,4786,0.080554    0.020777    0.007966      0.9965,-0.3623    -0.16479   0.0060539,1.102384     -2.299622      170.7348,-1.3242    -0.16223     -2.8125,24.80428      121.0501       76.9996,-0.72803     -9.0938     0.16638,-76,-3.5,
21:55:46:19,4787,0.077639    0.020903    0.013315     0.99667,1.2246   0.0077896     0.12927,1.708258     -2.269445      171.0577,-0.67041     -4.8594      4.9922,24.80425      121.0501      77.05933,-0.64453     -9.1406    0.013542,-77,-6.5,
21:55:46:50,4788,0.075227    0.025816    0.012577     0.99675,0.03363    -0.14404    0.043365,1.661393      -2.84145      171.3267,0.97314    -0.26758      1.3145,24.80423      121.0501      77.17903,-0.58008     -9.5703     0.15479,-77,-8.25,
21:55:46:81,4789,0.071706    0.030642   0.0051392     0.99694,-0.059113    -0.13318    0.033539,0.8404543     -3.460441      171.7467,1.2354      1.0137    0.024582,24.8042      121.0501      77.28917,-0.5332     -9.8516     0.20532,-77,-6.75,
21:55:47:12,4790,0.067622    0.029364   0.0058242     0.99726,0.11176    0.074097    0.037079,0.8946465     -3.312418      172.2158,-0.54297    -0.70947    -0.63721,24.80418      121.0501      77.50636,-0.49585     -10.0156     0.318848,-77,-7,
21:55:47:43,4791,0.062955    0.028997    0.012346  3.3533e-21,-0.018188     -1.7803    0.014427,50.8712      18.2773      8.75004,-1.001    -0.83936      1.9922,24.80415      121.0501      77.68978,0.00167084     -10.2734     0.379395,-77,-10,
21:55:47:74,4792,0.063382    0.023649  -0.0049273      0.9977,0.04422    -0.08313   0.0045395,-0.3920127     -2.740539      172.7394,-0.6416      2.3184      2.6621,24.80413      121.0502      77.82816,-0.300781     -10.4219     0.335449,-77,-5.75,
21:55:48:05,4793,0.060803    0.029829    0.015577     0.99758,0.54932    0.057343    0.052124,1.992265     -3.303171      172.9667,-2.1719     -3.3906     0.92334,24.8041      121.0502      77.98876,-0.329834     -10.6094      0.48877,-77,-4.75,
21:55:48:36,4794,0.061969     0.02412    0.012237     0.99771,-0.67432    0.074951   -0.017548,1.572237     -2.671723       172.855,-1.25     -1.8037     -0.5542,24.80407      121.0502       78.1372,-0.253418     -10.8828     0.291992,-76,-4,
21:55:48:67,4795,0.059031    0.029881   0.0058056     0.99779,1.3535   -0.022736    -0.25098,0.8674683     -3.379251      173.2029,-1.5332     -4.00781      26.7813,24.80404      121.0502      78.29127,-0.237061     -10.7422     0.292236,-77,-9,
21:55:48:98,4796,0.057922    0.034599    0.044313     0.99674,1.6553     0.10345     0.12732,5.309347     -3.660212      173.1786,-1.6133     -5.7891      6.0313,24.80402      121.0502      78.47987,-0.12915     -11.0781     0.706055,-77,-9,
21:61:155:118,21242,6.785595508913328e+34     -14.22503185272217   1.48865238253058e-33      0.990483820438385,-0.265136719           34336          258.75,-2.4022e-32  2.8646e-66  1.6727e-33,0.000448465347           54976    -0.157104492,24.80396      121.0503       78.7072,0.0355225     -11.5703     0.322266,-77,-9.5,
21:55:49:92,4799,0.060133    0.012897   0.0068386     0.99808,0.016052    0.052887   -0.043274,0.8713138     -1.428068      173.0935,0.80957      1.4863     0.46826,24.80393      121.0503      78.72301,0.0591125     -11.6563     0.217407,-76,-4.75,
21:55:50:23,4800,0.061927    0.019551    0.011974     0.99782,0.125   -0.092773    0.021454,1.50913     -2.151063       172.869,0.068115      2.1191     -4.0703,24.80391      121.0503      78.84096,0.0693359     -11.8359      0.21521,-77,-5.5,
211:51:52:10,4470,7.480023558160161e+28   0.007822167128324509 -0.0008283518254756927     0.9982214570045471,0.000115036964            99.5           19984,1.1983e-29  -1.269e-30  1.5292e-27,-0.00515365601           17792     0.348144531,26.6778678894043 -7.368685967388312e-28           188333948928,0.0733032     -11.9609     0.113525,-77,-8.5,
21:55:51:16,4803,0.067933   0.0085221   0.0099309      0.9976,-0.18921    -0.15125   -0.015671,1.201845    -0.8969502      172.1994,1.1006    -0.32446      1.0703,24.80382      121.0503      79.01816,0.0736694     -12.3047     0.117371,-77,-5.75,
21:55:51:47,4804,0.071173    0.017069   0.0048591     0.99731,0.17505     0.09845   -0.037598,0.694922     -1.911384      171.8244,1.3057    -0.14612      1.3994,24.80379      121.0504      79.10983,0.0578613     -12.4219     0.145874,-77,-7.5,
21:55:52:71,4808,0.066126    0.020558    0.002615      0.9976,-0.044098   0.0063896   0.0022449,0.4551003     -2.330924      172.4061,0.13965      1.1416      2.2207,24.80366      121.0504      79.44645,0.210693     -12.9141      0.15686,-77,-10,
21:55:53:02,4809,0.065698    0.020497   0.0097451     0.99758,-0.085938  -0.0040627     0.01973,1.269413     -2.270323       172.439,0.31714    -0.10352      2.7891,24.80363      121.0505       79.5633,0.232422     -13.0781     0.205688,-77,-8.25,
70:148:03:50,37446,3.011044639529352e+37  1.972662640120835e+27  -7.81680498107562e-09   0.005351763684302568,1704     -26.265625            740,7.5074e-09  -2.975e-44  2.0367e-38,-0.0028687    0.001174      1.7285,-4289041583308800 -2.540074926216315e+17           -973820.8125,0.0934448       -36.25      3.25586,-78,-12.75,
38:104:59:118,17953,-148583.34375  2.148042642878155e+23 -2.705973969155797e-36  4.071548708704407e+37,0.2573242    -0.1109619       -361.75,-2.206208e-45 -6.045551e-13          -180,0.0056763     0.46826     -5.4219,-0.007261509075760841  -3.18811586683261e-27  1.776063472171049e+24,-15992       7.0234375          87.125,-78,-12.25,
202:237:74:58,258,1.556139890526328e+25     0.2186733186244965   -0.00032004714012146    0.08374594897031784,363.5            2414          -45312,1.6103e-24 -2.3568e-27  6.1669e-25,0.000484228     -49.9688     -24.2344,4.5584e-26 -1.0546e-24 -4.0451e-13,1847        154.625            407,-77,-12.5,
21:56:30:03,4928,-0.9955964684486389    0.01888846978545189    0.02039947360754013  2.524525932027308e+25,6372    -0.11352539     -1.3398438,9.25959e-26 -8.573725e-26          -180,-0.08514404        -552.5      1.237305,14.3922     -60.1501  7.03671e-25,6208      8.4296875  0.00095748901,-78,-12,
21:56:31:00,5413,-1.838841278283278e+19    0.01095814257860184    0.02110371179878712 -0.0002804783871397376,0.1352539       235.125            -9,-6.8288e-20 -1.3151e-19  1.7479e-21,28.515625      1.9755859          -1791,-1.406739739e-05      237379.6875      77.95188141,47712           21.75    -0.118530273,-77,-11,
21:56:32:51,4936,-0.99712    0.020338    0.021882    0.069741,-0.12854    0.083679   -0.016998,-2.1518     -2.6638     -7.9518,0.17432    -0.53906  0.00017953,1.272055321451995e+30  3.308050889925453e-39      77.34290313720703,0.036469      8.6172    -0.17554,-77,-8.5,
74:125:168:88,47427,5.1567e-26   0.0060384    0.025357    0.066432,-0.0905762     -15.4063  0.000150204,42.06049     -9.064024       176.509,8.7082e-05   -0.049561 -0.00020397,4.66517719806309e-36           224492437504      76.77326965332031,0.036133      8.6484    -0.10168,-78,-9.75,
105:88:129:04,4878,-1.976080511892393e+28     0.2364111542701721    0.01888113096356392    0.06394299119710922,0.42651   -0.056732    0.017212,-1.3709e-27 -1.0949e-28  -3.708e-28,-0.058228   -0.028107     0.98389,24.80436      121.0501       77.2085,-0.0037537      9.6172 -0.00011426,-77,-10.75,
21:56:33:44,5453,-0.95838   2.134e-07  1.0583e-13    0.062937,0.21411    0.026077   0.0054588,-2.5406e-05 -1.6684e-06     -7.5145,-0.55225     -0.1709     0.47412,24.80438      121.0501      77.14683,0.0529175      2.11719      38.8125,-77,-10.25,
38:58:42:228,47944,2.127533293755748e+38  1.832999414890803e-15 -3.730589617224998e-28  4.086987981942428e+34,0.0070571899    0.011932373           1415,9.8728e-52 -1.8966e-55    0.022013,-0.00082541     0.45288   0.0002147,2.829449135088331e+29             4109689.75               20277410,5.19156456e-05           -1100           21392,-77,-12.75,
21:56:35:31,4945,-0.68678   0.0012226   0.0068106    0.061908,0.70703   -0.014793     0.19287,-0.100751     -1.14541     -10.3007,0.29541     0.86084      1.6797,24.80451        121.05      76.95831,0.14844      9.1563      0.1217,-77,-9.5,
21:56:35:190,39890,1.5225e-05  -0.0031551   0.0078102    0.065837,-0.025681   -0.098206    0.002243,13.56007      5.414217     -179.3823,0.91406    -0.25269    -0.34814,24.80453        121.05      76.96111,0.23242      9.3516   0.0091476,-77,-6,
21:56:36:55,4949,-0.99749   0.0010325   0.0063552    0.070469,0.13159   -0.087585   -0.014778,-0.066707    -0.73479     -8.0816,1.5928      1.3203    -0.58594,24.8046        121.05      76.97626,0.37427      9.6016    0.024063,-76,-2.5,
21:56:36:87,4950,-0.99742  -0.0010511    0.005205     0.07158,0.10706    0.047577    0.018845,0.16284     -0.5863     -8.2104,1.1895     0.93408     -1.4248,24.80462        121.05      76.96031,0.45532      9.7031    0.005619,-77,-7.25,
21:56:37:18,4951,-1.4057  3.3952e-09   0.0024854    0.074826,0.085999    0.037598   -0.019775,0.010755    -0.20204     -6.0941,-0.99365     0.23352 -0.00075865,-1.55029        121.05      76.96519,0.50488      9.7813   -0.006813,-76,-4.25,
21:56:37:49,4952,-0.9967451691627502  1.840230485892568e-22  1.752179840238223e+17    0.07990916818380356,-0.48633    -0.01136   -0.044617,180 -6.518656e-16          -180,0.56104     -1.8896     -4.7188,24.80467      121.0499      76.95923,0.57471      9.8984   -0.038879,-75,-2.75,
67:193:165:241,32614,-7.382316271784413e+22  -0.004416786134243011    0.01929984986782074    0.08035602420568466,0.22937    0.089355    0.016785,6.8559e-24 -2.9958e-23 -1.2473e-22,1.2217       3.584     -1.1123,24.8047      121.0499  2.894017e-18,0.00017095    -0.18115  -0.0010567,-77,-10.75,
21:56:38:11,4954,-1.478235960006714  0.0001541155070299283    0.02452531084418297 -2.370567033900706e+34,-0.23145     -8.3359    0.024124,-1.185536e-34  7.449836e-37           180,0.60254       1.041     0.84229,24.80472      121.0499      76.93507,0.594238       10.125   -0.0110626,-78,-10.25,
21:56:38:42,4955,-0.99728   0.0047839    0.011703    0.072558,0.04837   -0.051483    0.032471,-0.44953     -1.3774     -8.3171,0.62939      1.1143    -0.30811,24.80475      121.0499      76.92904,0.550781      10.1875   -0.0358276,-77,-7.75,
21:56:38:73,4956,-0.9972851872444153    0.00698210671544075  7.465744932463895e+24     0.0807347297668457,-0.049652   -0.030579   -0.011658,180 -1.530731e-23           180,0.22412      1.1211   0.0040398,24.80477      121.0499      76.92537,0.27979      2.0781   -0.072876,-77,-9.75,
21:56:39:04,4957,-0.99722 -0.00066589   0.0057521  2.8457e-07,-0.011444     0.10529   0.0019646,0.076521    -0.66097 -0.00047408,0.37939     0.43848  0.00061321,13.9339542388916 -6.623117884312781e+16      307.6865844726563,0.620117      10.3359  -0.00462341,-77,-8.75,
21:56:39:35,4958,-0.99694    0.008077   0.0049994    0.077571,-0.29932    0.021011   -0.007843,-0.87838    -0.64295     -8.8934,-0.49585     -1.0928     0.21753,24.80482      121.0499      76.92086,0.643066      10.4688    -0.102722,-77,-9.25,
55:56:42:203,17318,-4.70699654176636e+21  3.211081187947487e+26    0.01792671158909798    0.07839825749397278,0.065795898           3074           -335,-179.9983 -2.797752e-26  6.396967e-27,0.85645    -0.16602   -0.067993,416158176      121.0497894287      76.98717498779,0.64502      10.8906   -0.0631104,-77,-8.25,
21:56:41:22,4964,-0.99679   0.0037276    0.022269    0.076769,0.049316    0.097168   0.0052948,-0.23011     -2.5773     -8.8028,0.33643    -0.65283     -3.6602,24.80499      121.0498      76.99687,0.650879      10.9844   -0.0402527,-77,-8,
21:56:43:40,4971,-0.99803  0.00059935    0.013643    0.061203,0.112     0.16113  0.00021827,0.027147     -1.5647     -7.0188,0.62744      2.3945    -0.29004,24.80519      121.0497      76.93341,0.461426      11.4297   -0.0858765,-77,-7.5,
21:56:43:71,4972,-0.99799     0.01292   0.0086921    0.061505,-0.0069008   -0.035309  -0.0080414,-1.4166     -1.0852     -7.0399,0.30664     -0.4834      1.4287,24.80522      121.0497      76.95386,0.396973      11.5234    -0.104736,-76,-6.25,
21:56:44:02,4973,-0.9980614185333252   0.004219718277454376   0.004090136848390102  1.846767559420999e+26,-0.30078     0.12378   -0.030594,2.537922e-27 -2.618327e-27          -180,-0.087158       2.293      1.4619,24.80524     -121.0496      76.95122,0.464355      11.6094   -0.0349731,-76,-5.5,
21:56:44:95,4976,-0.99767   -0.010111   0.0044253  6.7035e-05,-0.29639    -0.11273   -0.040619,1.1613    -0.50815    -0.01285,0.048065      2.7617     -3.3477,24.80533      121.0496      76.94537,0.525879      11.7734    -0.108704,-75,-1.5,
21:56:45:26,4977,-0.99746    0.014869   0.0069957    0.069327,-0.038452 -0.00010818   -0.022598,-1.6444    -0.91778     -7.9385,0.58789     0.27856       4.082,24.80536      121.0496      76.93208,0.571289      11.7656   -0.0586853,-77,-3.25,
21:56:45:57,4978,-0.95935  1.5098e-07   0.0057978    0.070173,-0.47241    -0.11517 -8.2791e-05,0.05037    -0.68884     -8.3673,0.66895      1.8945     -1.2813,3.130881e-28      121.0496      76.93767,0.600586      11.8672    -0.157715,-75,-1,
21:56:46:19,4980,-0.99723   0.0047464    0.012659    0.073201,0.26807    0.019958    0.016174,-0.43636     -1.4865     -8.3908,0.48071     -1.4258   0.0071907,-106538598400      121.0495223999023      76.91864776611328,0.64209      11.9219    -0.019104,-77,-7,
21:56:46:82,4982,-0.99692  3.5586e-31   0.0045249    0.073765,0.27783   0.0048637     0.12659,0.038276    -0.51728     -8.4637,1.2676     -4.0469     0.83057,24.80551      121.0495      76.89956,0.711914      11.8047    -0.422852,-76,-8,
21:56:47:13,4983,-0.99689   -0.004137   0.0071838    0.078315,0.411376953         -26.875          -28384,0.53712    -0.78354     -8.9874,1.6885      2.7363     -1.8584,24.80554      121.0495      76.82767,0.714844           12    -0.197021,-77,-8.5,
21:56:47:44,4984,-0.99655     0.01398    0.012014    0.080904,-0.47241   -0.028961   -0.031342,-1.4858     -1.5017     -9.2632,-0.89258     -1.7422      2.1758,24.80557      121.0495      76.82918,0.745117      12.1484   -0.0836792,-76,-3.25,
21:56:47:75,4985,-0.9967   0.0027736    0.021354    0.079391,-0.16174    -0.05658    0.040192,-0.12261     -2.4645     -9.1058,1.1162     0.76221    -0.42578,24.8056      121.0494      76.84041,0.784668      12.1406   -0.0662231,-77,-8.75,
21:56:48:06,4986,-0.99668    0.013647    0.023152  9.6953e-32,-0.075745    -0.10382   0.0042458,-1.5698     -2.6609     0.03646,-0.069336      2.3828      2.4082,24.80564      121.0494      76.84958,0.734375      12.2266   -0.0821533,-76,-1.25,
21:56:48:37,4987,-0.99711   0.0052689    0.016428    0.074035,0.18774     0.20105  -0.0082855,-0.46291     -1.9222      -8.485,-0.55029     0.22827    -0.31372,24.80567      121.0494      76.88537,0.702637      12.2578    0.0163116,-76,-4.25,
21:56:48:68,4988,-0.99707   0.0012629    0.020411    0.073669,0.1311   -0.032257     0.00597,0.028041     -2.3434     -8.4519,-0.52002    -0.24194     -1.0215,24.8057      121.0494      76.85813,0.651855      12.3203   -0.0353394,-75,-1.5,
21:56:48:99,4989,-0.99725   0.0066093    0.017426    0.071753,0.13562    0.096558    0.030243,-0.61241     -2.0461     -8.2199,-0.47241    -0.21216      0.6543,24.80573      121.0494      76.86306,0.638672      12.3359   -0.0744019,-73,2,
21:56:49:30,4990,-0.99729   0.0081379    0.019289    0.070499,-0.23645    -0.11548    0.055878,-0.77482     -2.2707     -8.0717,-0.56592    -0.41968      3.0156,24.80576      121.0494      76.85039,0.60498      12.4453    -0.086792,-76,-3.25,
21:56:49:92,4992,-0.9977   0.0032598    0.012016    0.066707,0.18884     0.06781    0.014046,-0.28092     -1.3989     -7.6469,0.71924      2.0801      1.5244,24.80582      121.0493      76.79482,0.541992      12.5156   -0.0447083,-76,-4.5,
21:56:50:24,4993,-0.99775   0.0044984   0.0087273     0.06628,0.12427    0.030716   -0.026199,-0.44811     -1.0321     -7.5971,-0.069885     0.57568    -0.75488,12.90488      121.0806      76.77531,0.53418      12.5547   -0.0613708,-75,-1.25,
21:56:50:55,4994,-0.99775   0.0039971   0.0040046    0.066872,-0.14026    0.025894   -0.015228,-0.42633     -0.4885     -7.6669,0.78662    -0.97998     -3.1309,24.80589      121.0493      76.74986,0.556152      12.4375   -0.0333862,-75,-3.5,
21:56:50:86,4995,-0.99743   0.0032976   0.0033957    0.071453,0.25781    -0.10522   -0.015175,-0.34911    -0.41512     -8.1937,-0.31006     0.12573     0.66211,24.80592      121.0493      76.73869,0.527344      12.1875    -0.004776,-75,-2.5,
21:56:51:17,4996,-0.99732   0.0057154    0.011259    0.072009,0.23975    0.091858    -0.01799,-0.56044      -1.334     -8.2529,-0.1864      0.7749      3.0801,24.80595      121.0493      76.70834,0.544434      12.0469   -0.0466919,-72,2,
115:94:53:48,4997,-0.99725    0.014461    0.012096     0.07172,0.081482   -0.052673    0.032684,-1.5538     -1.5013     -8.2067,-1.0771     -2.7305     0.29614,24.80598      121.0492      76.67973,0.506836      11.8438     -0.11676,-72,1.25,
21:56:51:79,4998,-0.99746   0.0057682   0.0094449    0.070424,-0.027512      0.1051   -0.039215,-0.5832     -1.1262     -8.0715,-0.50879     0.13745        -0.5,24.80601      121.0492      76.64461,0.515625      11.7813   -0.0408325,-72,2.5,
21:56:52:10,4999,-0.99733   0.0070589   0.0099279    0.072029,0.021332   -0.072205   -0.018875,-0.72496      -1.193     -8.2541,0.60352    -0.72803     -2.1191,24.80604      121.0492       76.6499,0.484131      11.6875   -0.0501404,-73,2.25,
21:56:52:41,5000,-0.99717    0.005775    0.013956    0.073621,-0.10486   -0.014381   -0.032898,-0.54239     -1.6436     -8.4372,-0.93506    -0.63037     0.87744,24.80607      121.0492      76.67151,0.459229      11.5938  -0.00515366,-71,2.75,
21:56:52:73,5001,-0.99716    0.006018    0.021746    0.071826,0.51904    -0.16089    0.028366,-0.50918     -2.5352     -8.2286,0.81494      1.1943      4.3281,24.8061      121.0492       76.6993,0.412354      11.4609    0.0491028,-69,3.75,
21:56:53:03,9098,-0.9972    0.010387    0.020815    0.071041,-0.082153     0.17566    -0.03891,-1.0185     -2.4638     -8.1278,-0.89502    -0.79688     0.54053,24.80612      121.0492      76.68473,0.409912      11.4141    0.0121307,-69,4.25,
21:56:53:66,5004,-0.99768   0.0080387    0.021104    0.064283,0.015373     0.11322    0.022079,-0.7643     -2.4727     -7.3567,-0.21313     -0.4729    -0.04837,24.80618        -121.3      76.61281,0.298096      11.2813   -0.0158539,-70,3.5,
21:56:53:97,5005,-0.9979  -0.0027027    0.016815    0.062437,0.20605    0.023071   0.0027599,0.4296     -1.9038     -7.1675,0.033173     0.72021     -1.1094,24.80621      121.0491      76.59256,0.238403      11.2031    0.0268402,-72,2.25,
21:56:54:28,5006,-0.99792   0.0092916    0.014471    0.062203,-0.66846   -0.033264   -0.014336,-0.95985     -1.7212     -7.1192,0.41821    -0.31909     -1.5146,24.80624      121.0491      76.56173,0.227661      11.2188   -0.0667725,-72,2.5,
21:56:54:59,5007,-0.99792   0.0065726    0.016659    0.061976,0.27881   0.0028381    0.016586,-0.63366     -1.9521     -7.0969,0.0044327     -0.7085     0.28784,24.80626      121.0491      76.49457,0.179077      11.0547   -0.0169678,-73,1.75,
21:56:54:90,5008,-0.99822    0.010329    0.011952    0.057485,-0.08374   -0.040405    0.029587,-1.1032     -1.4353     -6.5779,-0.059418      1.0342   -0.033386,24.80629      121.0491      76.40819,0.188232      11.0469    -0.129639,-69,3.75,
21:56:55:21,5009,-0.99821   0.0082778    0.004971    0.059041,0.013641     0.11072   -0.049225,-0.91333    -0.62463     -6.7649,-0.40381        -2.5 -0.00012398,24.80632       121.049      76.34433,0.204224      10.9141   -0.0825195,-71,2.75,
21:56:55:52,5010,-0.99804   0.0062022   0.0018798    0.062248,0.18201     0.12036   -0.034973,-0.69594    -0.25923     -7.1363,-0.53955    -0.45142     0.22693,24.80635       121.049      76.28321,0.234253      10.7188   -0.0351563,-71,2,
21:56:55:83,5011,-0.99789    0.011847   0.0030989    0.063716,-0.21655    -0.15356   0.0043068,-1.3323    -0.44086     -7.3016,0.9834     0.44849     -1.3848,24.80637       121.049      76.23447,0.248535         10.5   -0.0861206,-67,5.25,
21:56:56:15,5012,-0.99774    0.011841   0.0014127    0.066088,-0.22021    0.064026   -0.026199,-1.3433    -0.25119     -7.5762,0.38892    -0.27002     0.55615,24.8064       121.049      76.16006,0.290283      10.2188    -0.116455,-64,6,
21:56:56:46,5013,-0.9975   0.0098429     0.00361    0.069841,-0.13623     0.15186   -0.041382,-1.0963    -0.49143     -8.0054,-0.58691     -1.9141    -0.36743,24.80643       121.049      76.11886,0.33423      9.9141   -0.087585,-62,5.5,
21:56:56:77,5014,-0.99725    0.014256   0.0063798    0.072489,0.095581    0.068481   -0.005291,-1.5765    -0.84751     -8.3032,-0.81738     0.22437      2.0156,24.80645       121.049       76.0502,0.32007      9.6328    -0.07196,-63,5.75,
21:56:57:08,5015,-0.99727     0.00272   0.0099362    0.073124,0.1217    0.093994   -0.011131,-0.22763     -1.1584      -8.385,-1.1982      1.2979      2.9043,24.80647       121.049      75.97581,0.31592      9.3516   -0.043884,-67,5,
21:56:57:39,5016,-0.99688    0.020933     0.01696    0.074243,-0.058319     0.11139  -0.0016441,-2.2491     -2.1159      -8.477,-0.87598     -3.0664       1.459,24.8065       121.049      75.90537,0.30444      9.0234   -0.083191,-62,6.25,
21:56:57:70,5017,-0.99754    0.012427    0.011081     0.06811,-0.29199     0.31885    0.010345,-1.3346     -1.3638     -7.7961,-0.66211    -0.63623     -1.9902,24.80652      121.0489      75.84436,0.31543      8.7109   -0.072571,-68,4.75,
21:56:58:01,5018,-0.99752    0.024252  -0.0066872    0.065797,-0.10712     0.14575   -0.029694,-2.8239     0.58155      -7.562,-0.18066     -1.3857      1.0703,24.80654      121.0489      75.75507,0.23633      8.2109   -0.090698,-58,6.25,
21:56:58:32,5019,-0.99723    0.014077   -0.014159    0.071646,-0.083923    0.015854   -0.025284,-1.7257      1.5026     -8.2414,0.62207     -1.0791       -1.71,24.80656      121.0489       75.6508,0.27539       7.582   -0.086426,-62,5.5,
21:56:58:64,5020,-0.99622    0.020918   -0.025289    0.080389,0.41455      0.1156   -0.086243,-2.6247      2.6952     -9.2886,0.38232     -3.2363      -2.043,24.80658      121.0489      75.55082,0.34229      6.8828    -0.06958,-57,6.75,
21:56:58:94,5021,-0.9944    0.012926   -0.025048     0.10187,-0.01796   -0.092346    -0.17615,-1.76763      2.70436     -11.7407,0.62354     0.34888    -0.48389,24.8066      121.0489      75.44543,0.37354      6.3516   -0.087769,-55,6.25,
21:56:59:26,5022,-0.99147    0.025649 -0.00088405     0.12781,-0.034149    -0.18433    -0.10345,-2.92835    -0.275213     -14.6838,-0.075806     -3.9473      1.1104,24.80661      121.0489      75.32929,0.37598      5.6797    -0.10413,-54,6.25,
21:56:59:57,5023,-0.99106    0.017604    0.023407     0.13017,0.23315    -0.13037    0.058594,-1.65252      -2.9221     -14.9229,0.53711    -0.96924    0.081787,24.80663      121.0489       75.2174,0.38086      5.0977   -0.086487,-53,6,
21:56:59:88,5024,-0.99299    0.018325    0.020478     0.11498,-0.09845  -0.0012589    0.094727,-1.81753     -2.57244     -13.1691,-1.1328     -1.9346    -0.90381,24.80664      121.0489      75.13575,0.30786      4.6992   -0.096863,-49,5.5,
21:57:00:19,5025,-0.99397    0.017254    0.018973      0.1066,0.32886   -0.055603    0.017105,-1.73523     -2.37246     -12.2071,-0.26416      1.8691      0.4502,24.80665      121.0489      75.06515,0.14783      4.2578   -0.052551,-55,6.5,
21:57:00:50,5026,-0.99424    0.020235    0.024727     0.10226,-0.049835     0.13391     0.11658,-2.01892     -3.05571     -11.6904,-0.052856     -1.2822      0.1947,24.80666      121.0489      74.95448,0.15662      3.8047   -0.071533,-59,6,
21:57:00:81,5027,-0.99623    0.027627   0.0096327    0.081631,0.070557     0.20337     0.12769,-3.0661     -1.3582     -9.3323,0.17725     -4.0586     0.91357,24.80667      121.0489      74.86037,0.070435      3.3789   -0.050842,-48,6.5,
21:57:01:12,5028,-0.99619    0.024003  -0.0026344    0.083812,-0.028214    0.011063    -0.11182,-2.7664    0.070196       -9.62,0.034332    -0.63086    -0.32056,24.80668      121.0489      74.81476,-0.051971      3.0566   -0.045105,-47,6.75,
21:57:01:43,5029,-0.99453    0.019692  0.00087775     0.10256,-0.17773   -0.011818    -0.13599,-2.23443    -0.331457      -11.769,0.81104    -0.58984    -0.22144,24.80669      121.0489      74.78117,-0.0009284      2.7637   0.0048332,-49,6.25,
21:57:01:74,5030,-0.99258    0.023414   0.0016332     0.11932,0.017212   -0.013786   -0.096191,-2.64189    -0.505924     -13.6982,-0.44507      1.3291    0.031403,24.80669      121.0489       74.7104,0.081421      2.4883   -0.000126,-51,6.25,
21:57:02:05,5031,-0.99114    0.017007   0.0028109     0.13173,0.06665   -0.054565    -0.11444,-1.88965     -0.57598     -15.1314,-0.3645      1.6582   -0.055054,24.8067      121.0489      74.65357,0.043976      2.2578    0.012169,-49,6,
21:57:02:37,5032,-0.98776     0.02005    0.018157     0.15363,-0.041016   -0.070068   -0.083069,-1.95187     -2.40883     -17.6403,-0.17017    -0.85596     0.34839,24.8067      121.0489      74.60658,0.046326      2.1465   -0.004303,-47,6.5,
21:57:02:67,5033,-0.98797    0.022096    0.035894     0.14881,0.12573   -0.060364     0.12354,-1.8955     -4.44484     -17.0574,0.14587    -0.61572     -0.6748,24.80671      121.0489      74.56486,0.071411      1.8447     0.02803,-49,5.5,
21:57:02:99,5034,-0.99262    0.017878    0.039581     0.11318,0.043976  -0.0042496     0.30005,-1.52562     -4.73944     -12.9469,1.5381     -2.4727    -0.96484,24.80671      121.0489      74.50307,-0.016098      1.6348    0.019928,-58,6,
21:57:03:30,5035,-0.99745    0.013984    0.033004    0.061708,0.0625     0.03479     0.38037,-1.3683     -3.8742     -7.0339,-0.7085      1.0547      2.8613,24.80672      121.0489      74.45524,-0.078735      1.5625    0.036438,-63,6.25,
21:57:03:61,5036,-0.99983   0.0078187    0.016558    0.002456,-0.035767     0.16272     0.37134,-0.89167     -1.8997     -0.2667,-0.24963    -0.55518     0.57813,24.80672      121.0488      74.40939,-0.14966      1.4746    0.040863,-47,6.25,
21:57:03:92,5037,-0.99925    0.011091   0.0033535   -0.036979,-0.025146   -0.027573     0.22534,-1.2843      -0.337      4.2425,-0.2627     -2.0078    -0.71631,24.80672      121.0488      74.37716,-0.27783      1.2725    0.046234,-42,0,
21:57:04:23,5038,-0.99837    0.010004  -0.0013641   -0.056159,-0.15649    0.053314     0.06897,-1.1358     0.22044      6.4369,0.854     0.26587     0.92432,24.80672      121.0488      74.34048,-0.18347      1.1631  -0.0060921,-48,6,
21:57:04:54,5039,-0.99778    0.010024   -0.015536      -0.064,0.17859    -0.06134     0.03302,-1.0327      1.8501      7.3234,0.26807     -2.5605      1.1191,24.80673      121.0488       74.2973,-0.26685     0.77246    0.033203,-42,4.5,
21:57:04:85,5040,-0.9976   0.0099458  -0.0031483   -0.068435,-0.28711    -0.17517   -0.016006,-1.1124      0.4379      7.8444,-0.59619     0.85156    -0.53125,24.80673      121.0488      74.27029,-0.33569     0.65186   -0.036224,-42,6.25,
21:57:05:16,5041,-0.99721   0.0024807    0.014999   -0.073136,0.064087   -0.088562    0.057434,-0.40937     -1.6935      8.3952,0.34033     -1.4238     -1.1152,24.80673      121.0488       74.2438,-0.27881     0.48877   0.0049934,-42,4,
21:57:05:47,5042,-0.99675   0.0067022    0.025102   -0.076289,-0.10327   -0.035095   -0.005352,-0.98619     -2.8097      8.7777,0.059174     -0.7915     0.75928,24.80673      121.0488      74.20061,-0.10895     0.29419   0.0020008,-41,6.75,
21:57:05:78,5043,-0.9969     0.00283    0.017809   -0.076577,0.045929    0.068115    0.013268,-0.47987       -2.01      8.7935,-0.43433     0.54736     0.84521,24.80673      121.0488      74.16387,-0.0072441     0.19653   -0.016495,-40,6.5,
21:57:06:10,5044,-0.99702   0.0036741    0.007504   -0.076705,0.0062904    0.077454    0.021591,-0.48578    -0.82506      8.8022,-0.45679     0.45435     0.14172,24.80673      121.0488       74.1306,-0.012482     0.18982   -0.023224,-40,6.5,
21:57:06:41,5045,-0.99704     0.00426  0.00081133   -0.076753,0.030426     0.05191   0.0086212,-0.49386   -0.055228      8.8042,1.2041     -2.6387   -0.092285,24.80673      121.0488      74.09525,-0.015732     0.15381   -0.027374,-41,6.5,
21:57:06:72,5046,-0.99706    0.003458 -0.00080205   -0.076525,0.028687   -0.010376   -0.020203,-0.38806     0.12196      8.7773,-0.085632      1.0967    -0.75391,24.80673      121.0488      74.11347,-0.026428     0.14099   -0.019043,-41,6.75,
21:57:07:03,5047,-0.99706   0.0035359   0.0016504   -0.076556,-0.0060654   -0.014984   -0.030228,-0.41847    -0.15755      8.7819,-0.22058       1.832    -0.63867,24.80673      121.0488      74.08655,-0.011177     0.13123   -0.026352,-40,6.5,
21:57:07:34,5048,-0.99706    0.002725   0.0020557 -9.6619e-31,-0.025543   0.0068398    0.019318,-0.31318    -0.23625  0.00064569,0.2788086    -0.6157227       -151.25,24.837      121.0488      74.06101,0.010208     0.11145   -0.023041,-40,3.25,
21:57:07:65,5049,-0.99705   0.0025566   0.0035887   -0.076636,0.017441   -0.002449    0.020523,-0.32363    -0.38757      8.7916,0.66895    -0.46558   -0.090149,24.80673      121.0488      74.04233,0.019806     0.10797   -0.026016,-40,6.75,
21:57:07:96,5050,-0.99706   0.0027571   0.0038511   -0.076544,-0.047211  -0.0016193   -0.010376,-0.3488    -0.41582      8.7813,-0.61865     0.88525    0.083679,24.80673      121.0488      74.04909,0.031586    0.093384   -0.015198,-42,0.75,
21:57:08:27,5051,-0.99702   0.0021758   0.0049096   -0.076911,0.073364   0.0015192  -0.0072708,-0.29188    -0.54176      8.8236,-0.2179     0.25903      1.0537,24.80673      121.0488      74.03714,0.049438    0.076721  -0.0085602,-40,-0.75,
21:57:08:58,5052,-0.99705   0.0026974   0.0054294   -0.076535,-0.0097046    0.025314   -0.011032,-0.35583    -0.59668      8.7808,-0.98242     0.74463    0.023483,24.80673      121.0488      74.01601,0.064819    0.069824   -0.027756,-37,-0.75,
21:57:08:89,5053,-0.99701   0.0031981    0.005731   -0.077026,0.030945    0.017838    0.016922,-0.41599    -0.62655      8.8377,-0.125      1.0381    -0.66797,24.80673      121.0488      74.00923,0.078613    0.059357   -0.035095,-43,5.75,
21:57:09:21,5054,-0.99701   0.0022964   0.0064569   -0.076988,0.028854   -0.024567    0.038055,-0.31935    -0.71746      8.8331,0.54297    -0.77344      2.0723,24.80673      121.0488      74.02213,0.076721    0.035309  -0.0037251,-38,0.75,
21:57:09:51,5055,-0.99698   0.0011558    0.008617   -0.077114,0.063416   0.0078125   -0.065186,-0.20823    -0.97429      8.8475,-0.78418      1.1104    -0.52783,24.80673      121.0488      74.02274,0.089233    0.036896  -0.0056496,-41,0,
21:57:09:83,5056,-0.99698   0.0014319    0.009146   -0.077071,-0.010185    0.013336    0.051788,-0.2444     -1.0323       8.843,0.60498    -0.76709     -1.0508,24.80673      121.0488      74.00163,0.10895    0.024429   -0.029984,-38,-1,
21:57:10:14,5057,-0.99697   0.0018174   0.0088833   -0.077231,0.0027561   0.0082703   -0.001792,-0.28629    -0.99883      8.8617,0.17981    -0.35474    0.066589,24.80673      121.0488      74.00036,0.12195     0.01107   -0.015854,-41,-0.5,
21:57:10:45,5058,-0.99696   0.0019195   0.0081824   -0.077427,0.031082    0.010139   -0.049683,-0.29193     -0.9178       8.884,-0.63135     0.80957    -0.52002,24.80673      121.0488      74.02616,0.12433    0.010674   -0.019257,-41,0,
21:57:10:76,5059,-0.99694   0.0017945   0.0080157   -0.077705,0.031219   -0.021729     0.03064,-0.27642    -0.89978      8.9158,1.0996     -1.8467      1.9385,24.80673      121.0488      74.02838,0.13293  -0.0088196     0.00177,-42,1.25,
21:57:11:07,5060,-0.99695   0.0009739   0.0091741   -0.077478,0.022202   -0.010475  -0.0013657,-0.19274     -1.0395      8.8894,0.66162    -0.94336     -1.1523,24.80673      121.0488      74.02984,0.1311    -0.01326  -0.0077362,-40,-1,
21:57:11:38,5061,-0.99692   0.0016618    0.010491   -0.077746,0.005806   -0.020493   -0.017258,-0.28337     -1.1838      8.9215,0.00094557      1.8525    -0.43726,24.80673      121.0488      74.01971,0.13953  -0.0085602   -0.014214,-39,-1,
21:57:11:69,5062,-0.99691    0.001267    0.011374   -0.077685,0.01432  -0.0079193   -0.024582,-0.24605     -1.2881      8.9143,-0.52344     0.34082   -0.075989,24.80673      121.0488      74.04923,0.13831    -0.01403   0.0053253,-41,0.5,
21:57:12:00,5063,-0.9969  0.00076678    0.010762   -0.077915,-0.01947  0.00028372   -0.019775,-0.18373     -1.2227      8.9399,-0.8335      2.3672    0.020035,24.80673      121.0488      74.04133,0.15259   -0.012932   -0.014618,-41,6,
21:57:12:32,5064,-0.99691   0.0021986    0.010396   -0.077885,0.041962    0.035126    0.025925,-0.34402     -1.1681      8.9381,-0.075134      0.4082    -0.78076,24.80673      121.0488      74.02573,0.16016   -0.027374   -0.011627,-42,4.75,
21:57:12:62,5065,-0.99688    0.001048    0.010683    -0.07816,0.0085754    0.026855    0.019867,-0.21545      -1.211      8.9684,0.41382     0.98828    -0.32251,24.80673      121.0488      74.01824,0.16003   -0.033447   -0.017227,-41,3.25,
21:57:12:94,5066,-0.99686  0.00095135      0.0114   -0.078306,-0.049744   0.0034828 -0.00098419,-0.21102     -1.2938      8.9853,0.625    -0.55176     -0.8667,24.80673      121.0488      74.04285,0.16052    -0.03537   0.0008359,-42,1,
21:57:13:25,5067,-0.99687   0.0013647    0.012103   -0.078129,0.038116   -0.015457   -0.014893,-0.26433     -1.3705      8.9659,0.057373     -0.4187    -0.10016,24.80673      121.0488      74.03524,0.17517   -0.065918   0.0012636,-41,4.5,
21:57:13:56,5068,-0.99685  0.00012268    0.013358   -0.078183,-0.051086    0.016678    0.016769,-0.13374      -1.525      8.9709,1.0244    0.030167     -1.1738,24.80673      121.0488      74.02981,0.1748   -0.044617  0.00064802,-41,6.5,
21:57:13:87,5069,-0.99685   0.0014252    0.011914   -0.078394,-0.045746    0.020981    0.010353,-0.2699     -1.3483      8.9964,1.0811     -1.1416     -0.5127,24.80673      121.0488      74.02782,0.21667   -0.058167  -0.0091095,-41,6.5,
21:57:14:18,5070,-0.99689   0.0018901    0.005491    -0.07864,0.020157    0.046326  -0.0031872,-0.26541    -0.61024      9.0224,-0.39722     0.17871     0.93652,24.80673      121.0488      74.04924,0.2002   -0.035797    0.021179,-41,6.75,
21:57:14:49,5071,-0.9969   0.0028833  0.00077259   -0.078649,-0.020508    0.020355    0.004467,-0.33634   -0.062272       9.022,0.46387     -1.1729    -0.05011,24.80673      121.0488      74.04531,0.21277   -0.067627   0.0034924,-41,6.25,
21:57:14:80,5072,-0.99692   0.0033729  -0.0022624   -0.078365,-0.0068092    0.067139   -0.032837,-0.36501     0.28874      8.9884,-0.79932      0.7373    0.026245,24.80673      121.0488      74.03908,0.20203   -0.048676    0.010666,-41,6.25,
21:57:15:12,5073,-0.99692   0.0036339  -0.0025716   -0.078323,-0.01001    0.018738  -0.0012589,-0.39206     0.32639      8.9833,-0.12732     0.14905     0.32446,24.80673      121.0488       74.0463,0.19373   -0.059631   0.0047913,-41,6.75,
21:57:15:42,5074,-0.9969   0.0038876  -0.0024951   -0.078597,0.0027695   -0.014603  -0.0013456,-0.42164     0.32005      9.0147,0.24121     -1.2109      1.6318,24.80673      121.0488      74.06331,0.17737   -0.059143     0.01622,-38,6,
21:57:15:74,5075,-0.99689   0.0036735  -0.0020802   -0.078711,0.014824 -0.00081348    0.021545,-0.40089     0.27077      9.0281,0.13916     0.44067    -0.25635,24.80673      121.0488      74.06366,0.17566   -0.056274  -0.0012836,-37,6.5,
21:57:16:05,5076,-0.99687   0.0036605   -0.001267   -0.078951,0.0094452  -0.0019455    0.010284,-0.40669     0.17785       9.056,0.37109      1.2891     -0.7793,24.80673      121.0488      74.05305,0.1814   -0.054993   -0.010391,-36,6.5,
21:57:16:36,5077,-0.99688   0.0026248 -0.00015324   -0.078842,0.010834   0.0085831   -0.022552,-0.29846    0.041219      9.0439,-0.76025    -0.18811     0.46191,24.80673      121.0488      74.05344,0.17737   -0.063538  0.00027752,-36,6.5,
21:57:16:67,5078,-0.99685   0.0030115   0.0014117   -0.079267,0.0495    0.012207    0.021393,-0.35683     -0.1339      9.0934,-0.21167     0.11877      0.6499,24.80673      121.0488       74.0786,0.16321    -0.05542    0.017334,-36,6.5,
21:57:16:98,5079,-0.99684    0.002948   0.0024119   -0.079325,-0.033234   -0.021301  -0.0013065,-0.35868    -0.24871      9.1004,0.8418    -0.51221    -0.50781,24.80673      121.0488      74.07114,0.17908   -0.068481  -0.0023537,-37,6.75,
21:57:17:29,5080,-0.99684   0.0026106   0.0034031   -0.079297,0.034607   -0.014481   0.0070534,-0.32913    -0.36501      9.0975,0.29907     -1.4668      1.8418,24.80673      121.0489      74.06554,0.18164   -0.066956    0.002634,-36,6.25,
21:57:17:60,5081,-0.99685   0.0020973   0.0034748   -0.079262,0.032806    0.006031    0.035004,-0.27114    -0.37787      9.0933,0.46191      -1.002     -1.1104,24.80673      121.0489      74.07494,0.18372   -0.067627   -0.010307,-36,6.25,
21:57:17:91,5082,-0.99683   0.0030745     0.00365   -0.079422,-0.046753    0.012764    0.020859,-0.38443    -0.38896      9.1121,0.056305    -0.41162   0.0009613,24.80673      121.0489       74.0965,0.16675   -0.055298  -0.0056152,-36,6.25,
21:57:18:23,5083,-0.99681   0.0032146   0.0044847   -0.079648,-0.034637    0.012375    0.014969,-0.40814    -0.48294      9.1385,0.069275      1.2412     0.98682,24.80673      121.0489      74.09241,0.1571   -0.050995  -0.0023537,-36,5.75,
21:57:18:53,5084,-0.9968   0.0021991   0.0048863   -0.079811,0.021149    0.016678    0.017899,-0.29589    -0.53803       9.157,0.25415    -0.49976    -0.86377,24.80673      121.0489      74.09241,0.18164   -0.059662   -0.011215,-36,6.5,
21:57:18:85,5085,-0.99678   0.0020517   0.0047284   -0.080061,-0.051727     0.04245    0.021835,-0.27774    -0.52127      9.1855,0.61816    -0.82373    -0.40063,24.80673      121.0489      74.09754,0.19788   -0.062683   -0.018433,-36,6.75,
21:57:19:16,5086,-0.99679   0.0023844   0.0041531   -0.079937,0.040405    0.027481   0.0029278,-0.3104    -0.45254      9.1712,-0.11066    -0.19556    0.012054,24.80673      121.0489      74.10132,0.16687   -0.061401  -0.0085068,-36,7.5,
21:57:19:47,5087,-0.99677   0.0032515    0.004374   -0.080084,0.0041809    -0.01796    -0.02684,-0.41155    -0.46977      9.1886,0.28882      1.2695   -0.054962,24.80673      121.0489      74.13143,0.16968   -0.055756  -0.0098267,-36,6.75,
21:57:19:78,5088,-0.9968   0.0021949   0.0053324   -0.079704,-0.011803  -0.0022507   -0.019333,-0.29943    -0.58905      9.1448,-0.94482     0.33618    -0.55029,24.80673      121.0489      74.15637,0.16003    -0.04892   0.0015831,-36,6.75,
21:57:20:09,5089,-0.99678   0.0025112   0.0048417   -0.079973,0.011208    0.010674    0.012245,-0.33122    -0.53002      9.1757,-0.51611      2.1465    -0.44873,24.80673      121.0489      74.15314,0.16211    -0.05603   -0.016556,-35,6.5,
21:57:20:40,5090,-0.99678   0.0028184   0.0049507   -0.079939,0.012825   0.0098267   0.0097733,-0.36729    -0.53967      9.1719,-0.063904       0.146      -1.292,24.80673      121.0489      74.16237,0.15906   -0.044617   0.0060768,-36,6.25,
21:57:20:71,5091,-0.99677   0.0026771   0.0046645   -0.080175,0.0043106    0.021423   0.0034466,-0.34865     -0.5082      9.1989,-0.0085602      1.3359   -0.028183,24.80673      121.0489       74.2032,0.16174   -0.050873  7.5996e-05,-36,6.75,
21:57:21:02,5092,-0.99676   0.0031383   0.0041802   -0.080296,-0.013054   -0.027847   0.0040092,-0.39693    -0.44859      9.2129,0.15063    -0.20398    -0.99756,24.80673      121.0489      74.19855,0.13953   -0.048676   0.0012321,-35,6.25,
21:57:21:33,5093,-0.99676   0.0031151   0.0046989   -0.080291,0.00024283   -0.031891   -0.022949,-0.39906    -0.50805      9.2125,-0.051208     0.12695      1.5732,24.80673      121.0489      74.20355,0.1488   -0.048462    0.012344,-36,6.5,
21:57:21:64,5094,-0.99678   0.0021997   0.0046854   -0.080075,-0.01828   0.0090103    0.003336,-0.29426      -0.515      9.1872,-0.50195    -0.42969     0.25415,24.80673      121.0489      74.19521,0.13782   -0.053131    0.002903,-36,6.25,
21:57:21:95,5095,-0.99674   0.0026367   0.0049579   -0.080472,0.045044    0.025665    0.033722,-0.3469    -0.54197      9.2332,-0.10956    -0.37573      1.1475,24.80673      121.0489      74.23524,0.13025   -0.047028    0.018082,-36,6.5,
21:57:22:26,5096,-0.99673   0.0026875   0.0056346   -0.080625,0.0067558  -0.0029125  -0.0064201,-0.35904    -0.61874       9.251,0.68701    -0.71533    -0.42236,24.80673      121.0489      74.24664,0.13525   -0.051514   0.0089417,-36,6.5,
21:57:22:58,5097,-0.99672   0.0034586   0.0061618   -0.080644,-0.013954   -0.015396    0.015373,-0.452    -0.67182      9.2541,0.50586    -0.67236      2.1797,24.80673      121.0489      74.25826,0.12793   -0.041687    0.031128,-36,6.5,
21:57:22:89,5098,-0.99671   0.0024257   0.0063803   -0.080786,-0.0007329   -0.010376   -0.014847,-0.33614    -0.70629      9.2698,0.11774    -0.45728    -0.83496,24.80673      121.0489      74.27538,0.1261   -0.049438    0.013878,-36,6.25,
21:57:23:20,5099,-0.9967   0.0027154   0.0062951   -0.080891,-0.027054  0.00019526   -0.013382,-0.36851    -0.69383       9.282,-0.10803      1.1826      1.1738,24.80673      121.0489       74.3336,0.11755   -0.034515    0.026733,-36,6.5,
21:57:23:51,5100,-0.9967   0.0015781   0.0061555   -0.080916,-0.0039825   0.0012903   -0.029282,-0.23733    -0.68843      9.2841,-0.073792     -0.3667    -0.31592,24.80673      121.0489      74.34871,0.11566   -0.046326    0.020111,-36,6.75,
21:57:23:82,5101,-0.9967   0.0023116   0.0067482   -0.080836,-0.011383  -0.0044365    0.011368,-0.32655    -0.74934      9.2756,-0.69287     0.64648      2.3125,24.80673      121.0489      74.34992,0.10724   -0.029892     0.02948,-35,6.5,
21:57:24:13,5102,-0.99669   0.0024308   0.0072328   -0.080896,-0.02565    0.028183   0.0077553,-0.34471    -0.80357      9.2829,-0.43115   -0.061584    0.077393,24.80673      121.0489      74.35725,0.10675   -0.039429     0.01445,-35,6.5,
21:57:24:44,5103,-0.99667   0.0035095   0.0066878   -0.081191,-0.04422    0.015762  -0.0030594,-0.46308    -0.73118      9.3172,-0.5542      2.4238     0.12225,24.80673      121.0489      74.39129,0.10309   -0.018677   0.0086975,-35,6.25,
21:57:24:75,5104,-0.99667   0.0022985   0.0062697   -0.081253,-0.029694    0.007225  -0.0066338,-0.32092    -0.69468      9.3233,0.094177    -0.19385     -1.2324,24.80673      121.0489      74.40085,0.10492   -0.029602   0.0068016,-34,6.5,
21:57:25:06,5105,-0.99666   0.0030184   0.0059629   -0.081408,-0.059052    0.011856    0.018845,-0.40039    -0.65287      9.3415,0.36768   -0.077454    0.015518,24.80673      121.0489      74.40488,0.10767   -0.039246   0.0040398,-35,6.5,
21:57:25:37,5106,-0.99664   0.0020305   0.0058337   -0.081721,0.024765   -0.003706    0.021942,-0.28654    -0.64724      9.3768,0.54346      -1.667      1.4121,24.80673      121.0489      74.41252,0.098389   -0.038788     0.02002,-35,6.75,
21:57:25:68,5107,-0.99666   0.0023192   0.0059353   -0.081454,0.013405   0.0034561  -0.0025501,-0.32029    -0.65623      9.3463,0.3772    -0.31445    -0.58252,24.80673      121.0489      74.43826,0.092102   -0.033112  -0.0013046,-36,6.25,
21:57:26:00,5108,-0.99665   0.0028821    0.005717   -0.081511,-0.037445 -0.00028133    0.003664,-0.38258    -0.62602      9.3531,0.19763      1.5605       0.604,24.80673      121.0489      74.42864,0.097229   -0.021072  -0.0022335,-37,6.25,
21:57:26:30,5109,-0.99664   0.0022127   0.0045756    -0.08169,-0.0052147  -0.0071449   0.0078583,-0.29555    -0.50186      9.3728,0.48071    -0.31445    -0.82422,24.80673      121.0489      74.41164,0.097778   -0.027679   -0.011528,-40,6.5,
21:57:26:62,5110,-0.99664   0.0032531   0.0040866   -0.081687,0.017319    0.023331 -0.00088167,-0.40979    -0.43627      9.3727,0.055206      1.0811    -0.35376,24.80673      121.0489      74.41922,0.09082   -0.021973  -0.0098267,-41,7,
21:57:26:93,5111,-0.99664   0.0023202   0.0037389   -0.081827,0.02504    0.023666    0.017426,-0.30005    -0.40525      9.3883,0.075134     0.48999    -0.76611,24.80673      121.0489      74.43432,0.074829   -0.017136    0.012192,-39,6,
21:57:27:24,5112,-0.99663   0.0027632   0.0040811    -0.08184,-0.011742  -0.0073433   0.0069008,-0.35386    -0.44017      9.3901,0.45386     -1.0557    0.084045,24.80673      121.0489       74.4262,0.077271   -0.033661  -0.0068741,-37,6,
21:57:27:55,5113,-0.99662    0.002731   0.0052787   -0.081979,0.060944   -0.011391   0.0010529,-0.3615     -0.5772      9.4066,0.1687     -1.3916      1.2344,24.80673      121.0489      74.41558,0.070068   -0.024399   0.0083923,-37,6.5,
21:57:27:86,5114,-0.99662   0.0020877   0.0070812   -0.081859,-0.016434  -0.0053368   0.0033417,-0.30488    -0.78914      9.3932,-0.29614    -0.11987    0.038544,24.80673      121.0489      74.41161,0.061646   -0.027481  -0.0093536,-39,6.25,
21:57:28:17,5115,-0.9966   0.0028405   0.0070114   -0.082096,0.033661     0.02829    0.031464,-0.39039    -0.77402       9.421,0.24048    -0.24329      1.8955,24.80673      121.0489      74.43967,0.086975   -0.010017    0.016769,-38,6.25,
21:57:28:48,5116,-0.99661   0.0036735   0.0045063   -0.082092,-0.024292  -0.0079651   -0.019012,-0.46193    -0.48008      9.4197,0.61475     -0.5625     -0.7583,24.80673      121.0489      74.43838,0.085022   -0.022308   -0.007679,-39,5.5,
21:57:28:79,5117,-0.99661   0.0020807   0.0043419   -0.082128,0.066956  -0.0045471    0.010529,-0.2785    -0.47628      9.4231,-0.37695    -0.63721      1.0771,24.80673      121.0489      74.43401,0.060028   -0.021164   0.0097427,-38,6,
21:57:29:10,5118,-0.9966   0.0025109   0.0051299   -0.082146,0.006382  -0.0056381   -0.014824,-0.33506    -0.56222      9.4256,0.085449    -0.65381    -0.15955,24.80673      121.0489      74.43174,0.073425   -0.016586   -0.009552,-38,-0.5,
21:57:29:41,5119,-0.99659   0.0025027   0.0058701   -0.082322,-0.041443   -0.022415   -0.016968,-0.34121    -0.64677      9.4462,-0.27148     0.38208      2.0996,24.80673      121.0489      74.44977,0.056915  -0.0045815    0.012192,-42,6.25,
21:57:29:73,5120,-0.99658   0.0019645   0.0071238   -0.082364,-0.0012636  -0.0078354   0.0026703,-0.29161    -0.79501      9.4512,-0.60254     0.10132     0.11969,24.80673      121.0489       74.4505,0.052094   -0.016571   0.0011206,-48,6,
21:57:30:04,5121,-0.99655   0.0030057   0.0088865   -0.082447,-0.039032   -0.011391  -0.0047302,-0.42726    -0.98646      9.4626,-0.45972      2.1113     0.61426,24.80673      121.0489      74.44531,0.057617  -0.0023556  -0.0079422,-39,0.75,
21:57:30:35,5122,-0.99656   0.0022068   0.0097403   -0.082322,-0.008606   0.0080795     0.01413,-0.34396     -1.0916      9.4478,-0.60254     0.54785    -0.80225,24.80673      121.0489      74.45357,0.058014  -0.0036621   -0.012413,-40,6.25,
