UTC	Pack_count	q0	q1	q2	q3	RollRate	PitchRate	YawRate	Roll	Pitch	Yaw	FreeAccX	FreeAccY	FreeAccZ	Lat	Long	Height	VelX	VelY	VelZ	LoRaRSSI	LoRaSNR
21:04:45:49	0	-0.99664	0.0034777	0.0010572	0.081774	0.096436	-0.026917	0.062286	-0.38727	-0.15333	-9.3806	1.8672	0.98975	-0.56738	24.80716	121.0242	59.67811	-0.0129318	0.00354576	59.6781	-55	5.5
21:04:45:80	0	-0.99664	0.0030334	0.0014762	0.081894	-0.040863	-0.016434	-0.0087051	-0.33259	-0.19706	-9.3944	0.17749	1.4795	-0.81152	24.80716	121.0242	59.70066	0.00150967	0.00762558	59.7007	-52	6.75
21:04:46:11	0	-0.99661	0.00076832	0.0053448	0.082084	0.072754	0.0084076	-0.0079041	-0.037473	-0.61763	-9.4167	-0.17944	-1.1211	1.7422	24.80716	121.0242	59.70511	0.0111084	-0.0141525	59.7051	-54	6
21:04:46:42	0	-0.99664	0.00074055	0.0061545	0.081676	0.036407	0.0066986	0.0031395	-0.026975	-0.70984	-9.3698	-0.16626	0.0032806	-1.0547	24.80716	121.0242	59.70671	0.00955963	0.0146561	59.7067	-51	6.5
21:04:46:73	0	-0.99658	0.00044917	0.0066336	0.082364	0.010513	-0.0039787	-0.0093155	0.011315	-0.76182	-9.4492	0.27808	-1.1895	0.41064	24.80716	121.0242	59.75703	0.0326843	0.0117798	59.757	-53	6.25
21:04:47:05	0	-0.9966	0.0014075	0.004057	0.082252	0.042877	0.00021696	-0.0089188	-0.12251	-0.47659	-9.4356	-0.58545	0.72852	-0.80127	24.80716	121.0242	59.76703	0.0442505	0.0156555	59.767	-52	6.5
21:04:47:35	0	-0.99657	0.0017048	0.002783	0.082692	0.053894	0.020493	-0.017914	-0.16831	-0.33397	-9.4862	0.05661	-1.2129	1.2334	24.80716	121.0242	59.75313	0.0127335	-0.000159502	59.7531	-50	6.5
21:04:47:67	0	-0.99656	0.0015823	0.0034349	0.082753	0.01796	0.014366	-0.00043797	-0.14813	-0.40727	-9.4931	0.87061	1.0615	-1.2031	24.80716	121.0242	59.74393	0.0393372	0.0275726	59.7439	-51	6.25
21:04:47:98	0	-0.99656	0.0025211	0.0012043	0.082824	0.047638	0.019302	0.00086403	-0.27647	-0.16146	-9.5014	0.77197	0.63818	-0.81494	24.80716	121.0242	59.78097	0.0249634	0.00919342	59.781	-57	6.5
21:04:48:29	0	-0.99655	0.0027045	0.0024372	0.082914	-0.055756	-0.039673	-0.0013056	-0.28569	-0.30402	-9.5115	0.02092	-0.0073051	-0.053986	24.80716	121.0242	59.79305	0.0108643	0.0132141	59.793	-48	6
21:04:48:60	0	-0.99652	0.0034301	0.0012909	0.083277	0.0044708	0.037842	-0.0099258	-0.37938	-0.18015	-9.5533	0.2052	-0.54395	0.96533	24.80716	121.0242	59.79419	0.0421448	0.0096283	59.7942	-50	6.75
21:04:48:91	0	-0.99653	0.0021472	0.0027628	0.083172	0.021576	0.012337	0.013786	-0.21887	-0.33596	-9.5413	-0.54541	0.45483	-0.40039	24.80716	121.0242	59.79997	-0.000814438	0.00666046	59.8	-57	6.75
21:04:49:22	0	-0.9965	0.0012591	0.0071685	0.08323	-0.076233	-0.0058403	-0.0015411	-0.075415	-0.83062	-9.5482	0.31494	0.89307	-1.9082	24.80716	121.0242	59.8246	0.0187836	0.000213742	59.8246	-48	6
21:04:49:53	0	-0.99649	-0.00040979	0.0050485	0.083557	-0.025711	0.0289	0.0065613	0.095137	-0.57257	-9.5867	-0.5752	-1.2041	0.21643	24.80716	121.0242	59.82732	0.0621338	0.00593567	59.8273	-47	6
21:04:49:84	0	-0.99652	0.0027396	0.0020525	0.083329	-0.029312	0.04126	0.0014133	-0.29325	-0.26055	-9.5593	-0.46826	0.45874	0.12744	24.80716	121.0242	59.80685	0.0563965	0.0114212	59.8069	-49	6
21:04:50:16	0	-0.9965	0.0031377	0.0017502	0.083548	-0.0081711	-0.0020313	-0.0065269	-0.34154	-0.22989	-9.5844	-0.11157	1.2852	-1.3887	24.80716	121.0242	59.80357	0.047699	0.0139694	59.8036	-51	6.5
21:04:50:47	0	-0.9965	0.0032512	0.0011163	0.083492	-0.010155	0.0035534	-0.0040321	-0.36057	-0.15858	-9.5782	-0.32666	-1.3008	-1.1182	24.80716	121.0242	59.83028	0.0307159	-0.00662613	59.8303	-53	6.25
21:04:50:78	0	-0.99648	0.0017848	0.0040089	0.083674	-0.025482	-0.0069275	-0.0050316	-0.16537	-0.47489	-9.599	0.43921	-0.42773	0.42822	24.80716	121.0242	59.82963	0.0389404	-0.00885773	59.8296	-52	6.5
21:04:51:09	0	-0.99651	0.0017329	0.0043257	0.083343	-0.033875	-0.021149	0.0018482	-0.15657	-0.51052	-9.5609	-0.23511	-1.373	1.0723	24.80716	121.0242	59.82508	0.043457	-0.0096817	59.8251	-57	6.75
21:04:51:40	0	-0.99647	-0.00092435	0.0073256	0.083572	-0.012749	-0.019913	0.0017967	0.17572	-0.82766	-9.5893	0.38525	0.23303	-0.8125	24.80716	121.0242	59.83917	0.0237579	-0.00538635	59.8392	-49	6.25
21:04:51:71	0	-0.99642	-0.0016662	0.009406	0.083978	-0.039856	0.01046	-0.017883	0.28082	-1.058	-9.6375	0.058685	-0.6748	-0.82568	24.80716	121.0242	59.8831	0.0386047	-0.00791168	59.8831	-49	6
21:04:52:02	0	-0.99642	-0.002074	0.0096451	0.083984	0.030045	0.0085831	-0.0071869	0.32969	-1.0814	-9.6388	-0.14478	-0.18774	1.7695	24.80716	121.0242	59.90435	0.0376282	-0.0135574	59.9044	-48	6
21:04:52:33	0	-0.99638	-0.0032071	0.010621	0.084236	-0.00040293	0.032379	0.0038338	0.46881	-1.1818	-9.6696	-0.49365	0.10699	-0.42456	24.80716	121.0242	59.90457	0.0393982	-0.00529099	59.9046	-48	5.75
21:04:52:64	0	-0.99637	-0.002772	0.010816	0.084374	0.024307	-0.013702	-0.0025444	0.42117	-1.2082	-9.6851	-0.28516	-0.85254	-0.61133	24.80716	121.0242	59.89154	0.0491943	-0.0125885	59.8915	-48	6.25
21:04:52:96	0	-0.99636	-0.0029402	0.010551	0.084529	0.035309	0.031311	0.012161	0.43799	-1.1762	-9.7029	-0.2876	0.521	-0.32373	24.80716	121.0242	59.91842	0.0450134	-0.00469589	59.9184	-49	6
21:04:53:26	0	-0.99635	-0.0027186	0.010723	0.084653	-0.020782	-0.026718	0.0092697	0.4145	-1.198	-9.7171	0.58398	-0.68848	0.91846	24.80716	121.0242	59.91267	0.0553894	-0.0170441	59.9127	-51	6.5
21:04:53:58	0	-0.99635	-0.0026171	0.0095475	0.084836	0.020859	0.043945	0.017242	0.39169	-1.0647	-9.7373	-0.14282	0.82568	0.085693	24.80716	121.0242	59.92215	0.06427	0.00413132	59.9221	-52	6.25
21:04:53:89	0	-0.99634	-0.0018725	0.0096738	0.084946	-0.02153	0.0073433	-0.011421	0.308	-1.0863	-9.7492	-0.19824	0.47998	-1.9854	24.80716	121.0242	59.92448	0.0474243	-0.0164642	59.9245	-53	6.25
21:04:54:20	0	-0.99633	-0.002356	0.0095629	0.08508	0.023773	0.018707	-0.0074348	0.36228	-1.0689	-9.7651	-0.64355	-1.8438	0.41992	24.80716	121.0242	59.94996	0.0526123	-0.0187073	59.95	-61	5.75
21:04:54:51	0	-0.9963	-0.0017037	0.0091569	0.085415	0.027222	0.0059013	-0.0053635	0.28418	-1.0288	-9.8028	0.37012	-0.15002	0.35278	24.80716	121.0242	59.96046	0.071167	-0.00980377	59.9605	-54	5.75
21:04:54:82	0	-0.99631	-0.0022002	0.0090122	0.085348	0.03009	0.012398	-0.0063591	0.33939	-1.0074	-9.7954	-0.099548	-0.30273	1.75	24.80716	121.0242	59.96297	0.0597229	-0.0201263	59.963	-50	6.5
21:04:55:13	0	-0.9963	-0.0018935	0.009625	0.08541	-0.014801	0.013519	0.010551	0.31043	-1.0804	-9.8025	-0.33496	0.4165	0.031952	24.80716	121.0242	59.95687	0.0579529	-0.0135956	59.9569	-49	6.25
21:04:55:44	0	-0.99628	-0.0017436	0.0092945	0.085618	-0.0087585	-0.046997	0.015511	0.2903	-1.0441	-9.8262	0.24121	0.095642	-0.068726	24.80716	121.0242	59.99215	0.0684814	-0.0118408	59.9922	-48	5.75
21:04:55:75	0	-0.99629	-0.0015747	0.0084176	0.085634	0.033295	0.034027	0.011246	0.26242	-0.9456	-9.8275	0.14551	0.94727	-0.51318	24.80716	121.0242	60.00895	0.0715942	-0.0013752	60.009	-48	6.25
21:04:56:07	0	-0.99628	-0.0011816	0.0082832	0.085754	0.026978	-0.024704	-0.0016022	0.21632	-0.93408	-9.8408	-0.59131	-0.79639	-0.96143	24.80716	121.0242	60.01801	0.0665894	-0.0215149	60.018	-50	6.5
21:04:56:38	0	-0.99627	-0.0015871	0.0084884	0.085913	0.041138	0.030991	-0.0010538	0.2648	-0.95348	-9.8597	0.24744	0.24268	-1.0645	24.80716	121.0242	60.02419	0.0635376	-0.0115051	60.0242	-52	6.75
21:04:56:69	0	-0.99623	-0.0023541	0.0091699	0.086241	-0.028976	0.003397	-0.0053558	0.35942	-1.0236	-9.8985	0.090271	0.13342	-0.52881	24.80716	121.0242	60.05204	0.0667114	-0.0180969	60.052	-51	6.5
21:04:57:00	0	-0.99622	-0.0023068	0.0093865	0.086318	0.016495	0.011444	-0.0032845	0.35625	-1.0488	-9.9074	-0.70166	-1.1465	0.95166	24.80716	121.0242	60.05408	0.0595398	-0.0208282	60.0541	-52	5.75
21:04:57:31	0	-0.9962	-0.002228	0.010116	0.086488	-0.036957	-0.0018358	-0.013222	0.35466	-1.1328	-9.9272	-0.0045547	0.82861	-1.5576	24.80716	121.0242	60.06216	0.0672607	-0.0133896	60.0622	-53	6
21:04:57:62	0	-0.9962	-0.0022123	0.0093969	0.086578	-0.022842	0.016129	0.0033684	0.34584	-1.0508	-9.9372	0.54248	0.33081	-1.1797	24.80716	121.0242	60.07578	0.0717773	-0.0105133	60.0758	-52	6.5
21:04:57:93	0	-0.99618	-0.0018961	0.009421	0.086746	-0.025574	0.0090561	-0.011536	0.31015	-1.0567	-9.9562	-0.56641	0.52344	-1.1553	24.80716	121.0242	60.08688	0.0679321	-0.0128479	60.0869	-53	5.75
21:04:58:24	0	-0.99618	-0.0019071	0.008293	0.086905	0.018173	0.037292	-0.0014858	0.30033	-0.92773	-9.974	0.74951	0.33887	-1.1875	24.80716	121.0242	60.11498	0.0743408	-0.0139847	60.115	-53	6
21:04:58:55	0	-0.99617	-0.0021533	0.0092307	0.086881	-0.042206	0.00072956	-0.0045433	0.33776	-1.0323	-9.9719	0.13708	0.12433	-1.3076	24.80716	121.0242	60.12691	0.0640259	-0.0269318	60.1269	-51	6.75
21:04:58:86	0	-0.99614	-0.0028502	0.010141	0.08711	0.013367	-0.0070496	0.0090942	0.42667	-1.1292	-9.9996	-0.6333	-0.50244	1.1367	24.80716	121.0242	60.107	0.0566406	-0.0189819	60.107	-50	5.5
21:04:59:17	0	-0.99614	-0.0036483	0.011067	0.087008	-0.065918	-0.0001229	-0.010643	0.52693	-1.227	-9.9894	0.2854	0.15369	-0.40869	24.80716	121.0242	60.11676	0.0807495	-0.012413	60.1168	-49	5.75
21:04:59:48	0	-0.99615	-0.0025417	0.0089115	0.087167	0.00048542	0.024307	0.0052071	0.379208	-0.991915	-10.0051	0.31982	0.0019474	-0.80371	24.80716	121.0242	60.12685	0.0750732	-0.0163879	60.1269	-49	6.25
21:04:59:80	0	-0.99616	-0.00085223	0.0077111	0.087226	-0.050934	0.024765	-0.015884	0.174379	-0.871745	-10.0098	-0.40283	0.46924	-1.1279	24.80716	121.0242	60.11149	0.0633545	-0.0168457	60.1115	-49	6.25
21:05:00:10	0	-0.99615	-0.00059726	0.0065282	0.087445	-0.042603	0.01062	-0.0057983	0.133604	-0.73923	-10.0344	0.19385	-0.61572	-1.3457	24.80716	121.0242	60.11833	0.0561523	-0.0205688	60.1183	-48	6.5
21:05:00:42	0	-0.99612	-0.00077354	0.0067835	0.087721	0.0079498	-0.0028133	-0.0069237	0.1565	-0.766563	-10.0663	0.40698	-0.28638	0.17773	24.80716	121.0242	60.12511	0.0582581	-0.0223846	60.1251	-48	6.75
21:05:00:73	0	-0.99612	-0.0011094	0.0067774	0.087749	0.040039	-0.0018263	0.0070381	0.194801	-0.762481	-10.0698	-0.65674	-0.54883	1.2803	24.80716	121.0242	60.15753	0.0446167	-0.0261993	60.1575	-49	6.25
21:05:01:04	0	-0.9961	-0.0016446	0.0080094	0.087871	-0.036011	-0.0062218	-0.005825	0.268409	-0.897704	-10.0847	0.34399	0.13501	0.177	24.80716	121.0242	60.16195	0.0472717	-0.0234528	60.1619	-49	6.25
21:05:01:35	0	-0.9961	-0.0015426	0.0073982	0.087898	-0.043915	0.0049248	0.011749	0.250621	-0.828963	-10.0875	-0.080078	-0.10272	-0.66357	24.80716	121.0242	60.17023	0.055542	-0.0198059	60.1702	-48	6.25
21:05:01:66	0	-0.99609	-0.00046488	0.0069938	0.088089	0.012871	0.018311	-0.015823	0.123672	-0.793623	-10.1085	-0.16602	-1.291	0.16663	24.80716	121.0242	60.16417	0.0553894	-0.0238037	60.1642	-49	7.5
21:05:01:97	0	-0.99608	-0.0002764	0.0061343	0.088253	0.040192	0.025574	-0.014938	0.0935925	-0.697402	-10.127	-0.60107	-0.95654	1.2764	24.80716	121.0242	60.18975	0.0432739	-0.0232391	60.1898	-50	6.25
21:05:02:28	0	-0.99606	-0.0001201	0.0063664	0.088429	0.047333	-0.0087433	-0.0061874	0.0782269	-0.725465	-10.1472	0.45874	-0.60547	0.77588	24.80716	121.0242	60.18047	0.0427551	-0.028244	60.1805	-50	6.5
21:05:02:59	0	-0.99606	-0.00070058	0.0065913	0.088464	0.0055351	-0.0077896	0.0073624	0.146794	-0.745253	-10.1516	-0.12122	-0.27588	-0.13159	24.80716	121.0242	60.19398	0.04599	-0.0242004	60.194	-48	6.5
21:05:02:91	0	-0.99605	-0.00033592	0.0068497	0.08855	0.031494	-0.01194	-0.0059738	0.107856	-0.778435	-10.1613	-0.60107	0.86084	-1.166	24.80716	121.0242	60.18864	0.0433655	-0.0196991	60.1886	-47	6
21:05:03:22	0	-0.99603	-0.00028342	0.0063886	0.088808	-0.0092316	-0.0011129	0.00073195	0.0973711	-0.726307	-10.1909	0.78564	0.24255	-0.74463	24.80716	121.0242	60.21346	0.0499573	-0.013382	60.2135	-47	6.25
21:05:03:53	0	-0.99603	-0.000791	0.0073782	0.088687	-0.026352	-0.0048714	-0.008873	0.165283	-0.834113	-10.1776	0.31616	-0.34473	0.16321	24.80716	121.0242	60.20644	0.0407715	-0.0205688	60.2064	-53	6.25
21:05:03:84	0	-0.99603	-0.0011311	0.0074164	0.088755	-0.015388	-0.0074272	0.0077705	0.204547	-0.835003	-10.1858	0.085205	-0.16077	-0.71143	24.80716	121.0242	60.19796	0.0373535	-0.0214081	60.198	-53	6.25
21:05:04:15	0	-0.99601	-0.0012183	0.007408	0.088876	-0.055542	0.021881	-0.010971	0.214524	-0.833134	-10.1998	-0.2854	0.77832	-0.8916	24.80716	121.0242	60.19627	0.0509033	-0.00732422	60.1963	-52	6.5
21:05:04:46	0	-0.996	-8.98E-05	0.0047888	0.089208	-0.013237	0.041748	-0.0079575	0.0592055	-0.545657	-10.2365	0.55762	-0.20618	-1.2939	24.80716	121.0242	60.2114	0.0523071	-0.00442886	60.2114	-52	6.75
21:05:04:77	0	-0.99599	-2.01E-05	0.0048891	0.089324	-0.037964	-0.02478	0.0069046	0.0523396	-0.557801	-10.2498	0.76318	-0.71191	0.72412	24.80716	121.0242	60.21583	0.0322266	-0.0253754	60.2158	-51	6.5
21:05:05:08	0	-0.99597	-0.00037215	0.0061042	0.089528	0.0093231	-0.0029144	0.016281	0.105105	-0.692868	-10.2738	-0.41016	0.87256	0.29321	24.80716	121.0242	60.21189	0.0316772	-0.0133667	60.2119	-49	5.75
21:05:05:39	0	-0.99597	-0.00036962	0.0056334	0.089564	0.018311	0.004364	0.0093155	0.100008	-0.639155	-10.2778	-0.5332	-0.4248	1.0488	24.80716	121.0242	60.21204	0.0353699	-0.011795	60.212	-48	6
21:05:05:70	0	-0.99596	0.00045369	0.0052851	0.089653	0.037659	-0.026199	0.002512	0.00251818	-0.607857	-10.2874	-0.48267	-0.53662	-0.7627	24.80716	121.0242	60.21783	0.0328979	-0.0113449	60.2178	-50	6.25
21:05:06:01	0	-0.99594	0.00067269	0.0045698	0.089902	0.023758	0.0050201	0.012955	-0.0296953	-0.528467	-10.316	-0.33691	0.1875	0.31519	24.80716	121.0242	60.2166	0.0332947	-0.00609207	60.2166	-51	6.5
21:05:06:33	0	-0.99594	0.00041863	0.0041401	0.089899	0.017853	-0.0014772	0.011086	-0.00512684	-0.47681	-10.3157	-0.65625	-0.57861	1.0625	24.80716	121.0242	60.21783	0.0262909	-0.00318336	60.2178	-49	6
21:05:06:64	0	-0.99593	0.00030993	0.0048151	0.089972	-0.049835	0.00066519	-0.010399	0.0142738	-0.552728	-10.3242	0.4436	0.29858	0.044739	24.80716	121.0242	60.21978	0.0319214	-0.0023365	60.2198	-49	5.75
21:05:06:95	0	-0.99593	0.00045702	0.0051995	0.089996	-0.015533	0.024353	0.0066681	0.00146405	-0.598111	-10.3269	-0.45703	0.63818	-0.45679	24.80716	121.0242	60.24421	0.0257111	0.00381851	60.2442	-49	6.25
21:05:07:26	0	-0.99591	0.00098955	0.0044499	0.090183	0.001708	0.024734	-0.0031796	-0.0669473	-0.518067	-10.3481	-0.010918	0.20898	1.6143	24.80716	121.0242	60.24433	0.0361328	0.00198174	60.2443	-47	6.5
21:05:07:57	0	-0.99591	0.0012431	0.0036425	0.090259	-0.036774	0.0088043	-0.010338	-0.104192	-0.428557	-10.3567	0.34448	-0.66895	0.52783	24.80716	121.0242	60.25173	0.0396118	0.00198936	60.2517	-47	6.25
21:05:07:88	0	-0.99591	0.0023028	0.0020368	0.090282	-0.0038166	0.024048	0.012589	-0.241734	-0.256268	-10.3592	0.63916	0.9502	-0.87256	24.80716	121.0242	60.25281	0.0443726	0.0142365	60.2528	-47	6.25
21:05:08:19	0	-0.99589	0.0025795	0.0016057	0.090526	-0.020004	-0.013054	0.0056038	-0.277726	-0.209999	-10.3873	0.65527	0.28564	1.8281	24.80716	121.0242	60.26688	0.0225067	0.000136614	60.2669	-48	6.25
21:05:08:50	0	-0.99587	0.0014763	0.0040809	0.090722	-0.0075798	-0.013145	-0.014748	-0.126046	-0.481056	-10.4099	0.36499	-1.0264	0.40649	24.80716	121.0242	60.28033	0.016571	-0.0117569	60.2803	-47	6
21:05:08:82	0	-0.99587	-0.00036381	0.005976	0.090644	-0.020813	-0.015747	0.0024509	0.103597	-0.67821	-10.4021	0.1405	-0.26709	-0.79541	24.80716	121.0242	60.27198	0.0233459	0.00119305	60.272	-47	6.25
21:05:09:13	0	-0.99585	-0.00047814	0.0067455	0.090751	-0.049835	0.011246	-0.0076675	0.124724	-0.764822	-10.4148	-0.52148	0.49072	-1.0088	24.80716	121.0242	60.25705	0.032959	0.0079422	60.257	-47	6.25
21:05:09:44	0	-0.99584	-0.00069855	0.0062346	0.09095	0.038696	-0.0074654	0.0131	0.144704	-0.704199	-10.4376	-0.48853	-0.39478	1.0059	24.80716	121.0242	60.2556	0.0316162	0.00550461	60.2556	-46	6.5
21:05:09:75	0	-0.99583	-0.00029231	0.0068668	0.091001	0.036957	-0.025055	0.0018606	0.104973	-0.780575	-10.4433	-0.6709	0.68506	-1.0078	24.80716	121.0242	60.25448	0.0292358	0.0100098	60.2545	-47	6
21:05:10:06	0	-0.9958	-0.0006321	0.0073986	0.091228	0.042175	-0.013168	0.010452	0.149491	-0.837684	-10.4699	-0.17615	-0.16418	0.66748	24.80716	121.0242	60.25229	0.0335999	0.00597382	60.2523	-46	6.5
21:05:10:37	0	-0.99581	-0.001151	0.0070832	0.091166	0.022446	0.015762	0.00084305	0.205356	-0.796277	-10.4631	0.49341	0.49414	-0.93408	24.80716	121.0242	60.25623	0.0426636	0.0153122	60.2562	-47	6.5
21:05:10:68	0	-0.99581	-0.00046782	0.0066074	0.091199	-0.0064964	0.035339	-0.0086746	0.122445	-0.749109	-10.4662	0.086914	-1.1865	-1.8955	24.80716	121.0242	60.26187	0.0378723	0.0115051	60.2619	-47	6.25
21:05:10:99	0	-0.99579	-0.00082102	0.0072428	0.091329	-0.0074234	0.015617	-0.0074539	0.169503	-0.817914	-10.4816	0.044067	0.011406	1.668	24.80716	121.0242	60.29842	0.0270233	0.0117416	60.2984	-47	6.25
21:05:11:30	0	-0.99576	-0.0010409	0.0076899	0.091614	-0.025269	-0.029068	-0.0027866	0.199531	-0.866567	-10.5148	0.94287	-0.86035	-0.047699	24.80716	121.0242	60.30631	0.0400391	0.00567627	60.3063	-47	6.5
21:05:11:61	0	-0.99576	-0.001042	0.0075573	0.091673	-0.040833	0.0021591	-0.0064735	0.198308	-0.85142	-10.5215	0.27222	0.85986	-0.12695	24.80716	121.0242	60.31501	0.0366821	0.0218964	60.315	-47	6
21:05:11:92	0	-0.99574	-0.0011261	0.0073341	0.091891	0.013893	0.005619	0.016968	0.205746	-0.82502	-10.5465	-0.45605	0.62646	0.39795	24.80716	121.0242	60.32169	0.0363159	0.0188141	60.3217	-47	6.75
21:05:12:23	0	-0.99577	-0.00042987	0.0064941	0.091654	-0.033478	0.020279	0.010727	0.117267	-0.736524	-10.5186	0.46729	0.39258	-1.3291	24.80716	121.0242	60.33783	0.0295258	0.0260925	60.3378	-49	5.5
21:05:12:55	0	-0.99572	1.19E-05	0.0064805	0.092224	0.024399	-0.020294	0.0074234	0.0671293	-0.739576	-10.5838	1.374	0.17676	-0.75	24.80716	121.0242	60.33108	0.0254059	0.0240021	60.3311	-50	6.5
21:05:12:86	0	-0.99573	-0.00075297	0.0076048	0.092046	0.019257	0.031082	-0.010536	0.166147	-0.859806	-10.5642	-1.0957	-0.97998	1.4521	24.80716	121.0242	60.33282	0.0210419	0.0110474	60.3328	-47	6.25
21:05:13:17	0	-0.9957	-0.00077005	0.007644	0.092282	-0.0049706	-0.0068474	-0.010826	0.168715	-0.86406	-10.5914	-0.8667	-0.13159	-1.3193	24.80716	121.0242	60.33337	0.0280609	0.0263062	60.3334	-47	6.25
21:05:13:48	0	-0.9957	-0.00097275	0.006161	0.092402	-0.056732	0.010979	-0.0038738	0.176239	-0.692684	-10.6048	-0.29321	-1.0693	-0.59912	24.80716	121.0242	60.35333	0.0239563	0.0173645	60.3533	-48	6.5
21:05:13:79	0	-0.99568	-0.00055725	0.0070664	0.092555	0.016937	-0.0025902	0.0015316	0.13854	-0.800372	-10.6225	0.027161	0.46484	0.1438	24.80716	121.0242	60.33752	0.0166931	0.0158844	60.3375	-47	6.75
21:05:14:10	0	-0.99567	-0.0013351	0.0071655	0.092724	0.041077	-0.018097	0.00055313	0.228491	-0.803389	-10.6425	-0.15894	-0.36108	-0.22144	24.80716	121.0242	60.33422	0.031311	0.014328	60.3342	-51	6.5
21:05:14:41	0	-0.99568	-0.000525	0.0062105	0.092639	0.013634	0.0056686	0.010254	0.125839	-0.703043	-10.6319	0.73486	1.1885	-0.58154	24.80716	121.0242	60.33646	0.0268402	0.0370789	60.3365	-49	6.25
21:05:14:72	0	-0.99565	-0.00081977	0.0067678	0.092882	-0.0053482	-0.034546	0.011818	0.165579	-0.763463	-10.6603	-0.070374	-0.10742	0.076782	24.80716	121.0242	60.35087	0.0268555	0.0162811	60.3509	-47	6.75
21:05:15:03	0	-0.99565	-0.00081513	0.0068356	0.092928	-0.010864	0.0055351	0.016144	0.165807	-0.771238	-10.6656	-0.53906	0.75244	0.38965	24.80716	121.0242	60.35679	0.020462	0.0279694	60.3568	-47	6
21:05:15:34	0	-0.99565	-0.0016395	0.0069731	0.09289	0.052429	0.0010986	0.0087051	0.261302	-0.77816	-10.6618	-0.78516	-0.27393	1.4961	24.80716	121.0242	60.35226	0.00991821	0.01548	60.3523	-48	5.75
21:05:15:65	0	-0.99563	-0.0023178	0.0090061	0.092934	-0.006218	-0.02655	-0.0037212	0.360408	-1.00288	-10.6684	-0.39258	1.6182	-1.4434	24.80716	121.0242	60.35149	0.0148239	0.0315857	60.3515	-49	5.75
21:05:15:96	0	-0.99559	-0.0024365	0.0083895	0.093435	0.0027122	0.057678	-0.0021286	0.367846	-0.931082	-10.7259	-0.74219	0.070862	-0.041718	24.80716	121.0242	60.36262	0.0278473	0.0313416	60.3626	-56	6.5
21:05:16:27	0	-0.9956	-0.0012576	0.0077116	0.093408	0.018402	-0.010422	-0.0018444	0.226045	-0.86637	-10.7214	-0.68555	-0.34766	-0.51172	24.80716	121.0242	60.35468	0.0207062	0.016983	60.3547	-53	5.5
21:05:16:58	0	-0.99559	-0.0029952	0.0076089	0.093471	-0.027374	-0.01001	0.0060425	0.423263	-0.836018	-10.7301	0.44482	0.22729	-0.90186	24.80716	121.0242	60.34385	0.0194855	0.0295868	60.3439	-56	6.5
21:05:16:90	0	-0.99553	-0.0033946	0.010319	0.093822	0.033386	0.0096054	-0.0023823	0.498297	-1.14078	-10.7727	0.16455	-0.1015	-0.26636	24.80716	121.0242	60.35117	0.0348511	0.0317688	60.3512	-52	7
21:05:17:21	0	-0.99554	-0.0021256	0.0080358	0.093955	0.017517	0.023041	-0.0099716	0.32905	-0.893875	-10.7853	0.059418	-1.2324	-0.18469	24.80716	121.0242	60.36266	0.0368347	0.0169678	60.3627	-50	6.25
21:05:17:52	0	-0.99554	-0.0013576	0.0069871	0.094033	-0.011642	0.00079393	0.0088196	0.230186	-0.782486	-10.7931	-0.33423	-0.70605	0.29907	24.80716	121.0242	60.36813	0.0204773	0.0187683	60.3681	-51	6.25
21:05:17:83	0	-0.99553	-0.0013476	0.007925	0.094064	0.0085754	-0.011841	0.0091171	0.23919	-0.889593	-10.7971	-0.45898	-0.40967	-0.34692	24.80716	121.0242	60.36847	0.0236206	0.0177002	60.3685	-51	6.5
21:05:18:14	0	-0.99552	-0.0013415	0.0073455	0.094276	0.00080681	0.010063	0.0075684	0.232411	-0.8235	-10.8213	-0.20398	-0.032379	0.53418	24.80716	121.0242	60.35201	0.0356445	0.0252075	60.352	-51	6.5
21:05:18:45	0	-0.99553	-0.0024785	0.0083802	0.094093	-0.0082932	-0.0046425	0.0037518	0.373157	-0.929317	-10.8017	-0.22937	-1.085	0.20679	24.80716	121.0242	60.36334	0.0149384	0.0103302	60.3633	-49	6
21:05:18:76	0	-0.99551	-0.0026997	0.0098329	0.09414	-0.0074577	-0.0064774	0.0033932	0.414127	-1.09264	-10.8082	-0.36182	1.4307	-0.83545	24.80716	121.0242	60.38306	0.0261993	0.0292206	60.3831	-50	6
21:05:19:07	0	-0.99549	-0.0019549	0.0095907	0.094373	0.057617	-0.018021	0.015137	0.326776	-1.07298	-10.834	-0.2832	0.28735	0.51367	24.80716	121.0242	60.38945	0.0312347	0.0157166	60.3895	-52	6.5
21:05:19:38	0	-0.99547	-0.0027738	0.0094678	0.094518	-0.018616	0.0079269	0.0010757	0.419036	-1.05004	-10.8515	0.58691	0.20874	-1.3389	24.80716	121.0242	60.39819	0.0422363	0.0332947	60.3982	-51	6.5
21:05:19:69	0	-0.99548	-0.0014922	0.0090805	0.094509	-0.0011692	-0.03241	0.011223	0.268609	-1.01974	-10.8489	-0.043365	-0.27319	0.16077	24.80716	121.0242	60.41752	0.0488586	0.0153961	60.4175	-52	7
21:05:20:01	0	-0.99548	-0.0010311	0.0089002	0.094597	0.014709	-0.010498	-0.0027447	0.214136	-1.00415	-10.8586	-0.43311	-0.28271	0.12634	24.80716	121.0242	60.44969	0.0420532	0.0224915	60.4497	-50	6.25
21:05:20:32	0	-0.99546	-0.0020364	0.0079719	0.094818	0.018463	0.044556	-0.017227	0.318948	-0.887277	-10.8845	-0.086975	-0.80225	0.28369	24.80716	121.0242	60.45572	0.0682983	0.0226288	60.4557	-51	6.5
21:05:20:63	0	-0.99546	0.00010176	0.0051149	0.095058	0.022247	-0.0039787	-0.012772	0.0441097	-0.584576	-10.9097	0.53662	-1.0781	0.12366	24.80716	121.0242	60.46022	0.0673218	0.0180664	60.4602	-51	6.75
21:05:20:94	0	-0.99546	0.0012827	0.0037823	0.095054	0.013466	0.022263	-0.0090256	-0.105125	-0.445425	-10.9085	0.34375	-0.29126	1.5225	24.80716	121.0242	60.46256	0.0567932	0.0217896	60.4626	-50	6.75
21:05:21:25	0	-0.99545	0.0019677	0.0017287	0.095223	-0.054199	-0.012085	0.011711	-0.2056	-0.218665	-10.928	0.8208	-1.377	1.376	24.80716	121.0242	60.47189	0.0552063	0.00643921	60.4719	-50	6.5
21:05:21:56	0	-0.99544	0.0031076	-0.0004251	0.095308	0.029266	0.041016	-0.010239	-0.359128	0.0145512	-10.9382	-0.52295	-0.34595	-1.833	24.80716	121.0242	60.48143	0.0608521	0.0141296	60.4814	-49	5.75
21:05:21:87	0	-0.99543	0.0041829	-0.0014325	0.095368	-0.030258	-0.003067	0.012924	-0.492799	0.11769	-10.9456	0.65381	-0.72803	0.9209	24.80716	121.0242	60.4797	0.0533142	0.0109558	60.4797	-50	6.75
21:05:22:18	0	-0.99544	0.0034841	-0.00094901	0.095359	0.019318	0.012238	0.0015135	-0.407797	0.0701804	-10.9443	0.54395	0.89551	-0.93604	24.80716	121.0242	60.48649	0.0478821	0.0224457	60.4865	-52	6.25
21:05:22:49	0	-0.99542	0.0035519	-0.0011827	0.095524	-0.0023994	0.00018561	0.0020638	-0.418104	0.0960288	-10.9633	0.60791	-0.17688	-1.4131	24.80717	121.0242	60.50718	0.0424805	0.0156021	60.5072	-53	6.25
21:05:22:80	0	-0.9954	0.0043115	-0.0012646	0.09571	0.04425	0.010971	-0.013458	-0.505668	0.0969628	-10.9849	-0.075378	-0.73145	-0.59863	24.80717	121.0242	60.51204	0.06427	0.0200043	60.512	-53	6
21:05:23:12	0	-0.99539	0.0041648	-0.0021574	0.095771	-0.024963	-0.0091171	0.030441	-0.498738	0.200375	-10.9924	-0.29077	1.0898	0.22778	24.80717	121.0242	60.52386	0.0543823	0.0285492	60.5239	-52	6.5
21:05:23:42	0	-0.99543	0.007159	-0.0044723	0.095165	-0.15613	0.021912	0.011238	-0.865439	0.432073	-10.9253	0.43408	-0.17786	-3.0391	24.80717	121.0242	60.52987	0.102234	-0.0327148	60.5299	-49	6.25
21:05:23:74	0	-0.99648	0.0092119	-0.0049575	0.083224	-0.018021	-0.0021	0.10339	-1.0993	0.47824	-9.5529	0.5459	-0.035645	-2.1719	24.80717	121.0242	60.5574	0.168091	-0.226318	60.5574	-42	6
21:05:24:05	0	-0.99918	0.0085113	-0.0073243	0.038914	0.088928	0.1153	0.22595	-1.0073	0.80068	-4.4677	1.2842	2.1797	0.93262	24.80717	121.0242	60.56736	0.397949	-0.348145	60.5674	-41	6.75
21:05:24:36	0	-0.99938	0.015468	-0.020676	-0.024104	0.0056114	0.17749	0.44678	-1.716	2.4112	2.7272	-1.5732	0.44678	-0.4248	24.80716	121.0242	60.5695	0.544922	-0.490967	60.5695	-39	6
21:05:24:67	0	-0.99458	0.018476	-0.022028	-0.099951	-0.06543	0.0078735	0.5127	-1.85586	2.72321	11.4334	-0.019241	-1.3936	-0.49951	24.80716	121.0242	60.58002	0.769043	-0.631836	60.58	-35	6.5
21:05:24:98	0	-0.98243	0.00054228	0.0019623	-0.1866	0.10638	-0.30664	0.48804	-0.103011	-0.209316	21.5096	1.2598	0.096802	0.20862	24.80716	121.0242	60.6062	0.992676	-0.757813	60.6062	-34	5.5
21:05:25:29	0	-0.97521	-0.0076399	0.013119	-0.22077	-0.12573	-0.02504	0.076782	0.52208	-1.65962	25.5044	0.56836	4.25	1.7666	24.80716	121.0242	60.6144	1.38965	-0.633301	60.6144	-31	6.5
21:05:25:60	0	-0.97487	-0.014646	0.03311	-0.2198	-0.22229	-0.43213	-0.015228	0.804223	-4.07115	25.3825	1.0117	2.7715	0.38428	24.80716	121.0242	60.60703	1.57715	-0.945801	60.607	-35	6.5
21:05:25:91	0	-0.97864	-0.042934	0.048731	-0.19505	-0.066467	-0.13916	-0.40625	3.75193	-6.43809	22.3328	-0.84619	2.5664	2.2168	24.80716	121.0242	60.60984	1.93555	-1.05078	60.6098	-41	6.75
21:05:26:23	0	-0.99254	-0.024223	0.050611	-0.10823	0.069336	0.26099	-0.5752	2.13982	-6.06807	12.3331	0.65137	-1.5605	2.4688	24.80716	121.0242	60.59844	2.21094	-1.55176	60.5984	-42	6.75
21:05:26:54	0	-0.99725	-0.010213	0.052086	-0.051636	-0.93066	-0.1026	-0.41455	0.86376	-6.0238	5.8826	3.5645	-4.6875	-0.27466	24.80716	121.0243	60.61101	2.37305	-2.08008	60.611	-46	6.5
21:05:26:85	0	-0.99972	-0.012659	0.01948	-0.003612	-0.10785	0.29272	-0.24109	1.4434	-2.2374	0.38583	1.1064	0.76904	0.91357	24.80715	121.0243	60.63232	2.58203	-2.77539	60.6323	-45	7
21:05:27:16	0	-0.99972	0.0072191	0.022514	-0.00034686	-0.40039	-0.24744	0.024902	-0.82878	-2.5798	0.058421	3.5293	-2.4629	-0.053864	24.80715	121.0243	60.69541	2.79102	-3.4043	60.6954	-52	6.75
21:05:27:47	0	-0.9998	0.0082983	0.017114	0.0058877	-0.22205	-0.16931	-0.072327	-0.93978	-1.9668	-0.65867	1.8359	-2.4766	-0.1637	24.80714	121.0243	60.72819	3.24805	-3.98828	60.7282	-64	6
21:05:27:78	0	-0.99966	0.018069	0.017631	0.0058099	0.177	0.27148	-0.029175	-2.0598	-2.0322	-0.62945	2.4648	0.33301	-7.5117	24.80714	121.0243	60.78439	3.7207	-4.68359	60.7844	-57	5.75
21:05:28:09	0	-0.99978	0.011764	0.015658	0.0073265	-0.69434	-0.23511	-0.013542	-1.3354	-1.8041	-0.81869	2.3438	-5.2891	1.2725	24.80713	121.0243	60.83191	4.10938	-5.23828	60.8319	-56	6.75
21:05:28:40	0	-0.99987	0.0096447	0.0081346	0.010095	0.13599	0.2417	-0.017807	-1.0959	-0.94323	-1.1479	2.1875	-0.48901	-0.69971	24.80712	121.0243	60.89533	4.68359	-5.96094	60.8953	-62	6.5
21:05:28:71	0	-0.99982	0.016492	-0.0015289	0.0090623	-0.43018	-0.099243	0.011299	-1.8915	0.15804	-1.0412	0.059204	-4.3906	2.4766	24.8071	121.0244	60.94326	5.03516	-6.48047	60.9433	-62	6.75
21:05:29:03	0	-0.99984	0.017294	-0.0047881	0.0011334	0.61133	0.13098	0.025131	-1.9825	0.54635	-0.13935	2.6719	0.84863	1.585	24.80709	121.0244	61.03944	5.58594	-7.14063	61.0394	-64	6
21:05:29:33	0	-0.99976	0.020375	0.0050909	-0.0055296	-0.16968	-0.025223	0.018127	-2.3382	-0.57034	0.64542	1.8682	-2.1348	0.81152	24.80708	121.0244	61.17572	6.09766	-7.64844	61.1757	-61	6.25
21:05:29:65	0	-0.99987	-0.0047459	0.012988	-0.0078032	0.14563	-0.26929	-0.053955	0.53235	-1.4926	0.88734	1.2471	2.3203	-1.542	24.80706	121.0244	61.29025	6.4375	-8.10938	61.2902	-68	4.5
21:05:29:96	0	-0.99983	0.0015876	0.018473	9.29E-05	0.68359	0.38354	-0.0495	-0.18182	-2.117	-0.0072894	2.1035	-3.0527	-2.582	24.80704	121.0245	61.45381	6.91406	-8.84375	61.4538	-70	3.5
21:05:30:27	0	-0.99981	0.0035376	0.018231	0.0051734	-0.31592	-0.036255	-0.04364	-0.39476	-2.0913	-0.58572	0.018845	-4.1797	-1.3301	24.80702	121.0245	61.59727	7.09766	-9.22656	61.5973	-67	5.25
21:05:30:58	0	-0.99992	0.0011064	0.0087747	0.0086515	0.2627	0.22778	-0.018402	-0.11809	-1.0066	-0.9904	-2.2188	-2.3184	-0.24695	24.807	121.0245	61.78015	7.39063	-9.80469	61.7802	-72	2.5
21:05:30:89	0	-0.9997	0.02041	0.0014788	0.013435	0.06958	0.33887	0.026413	-2.3365	-0.20083	-1.5358	1.8447	-1.0117	-2.6426	24.80698	121.0245	61.96554	7.71875	-10.2188	61.9655	-76	-3.5
21:05:31:20	0	-0.99971	0.019331	-0.0077062	0.012077	-0.034882	0.040833	-0.0039864	-2.226	0.85609	-1.4009	-0.087402	-4.9688	0.67773	24.80696	121.0246	62.17011	7.99219	-10.6484	62.1701	-65	5.25
21:05:31:51	0	-0.99981	0.012393	-0.010892	0.010665	0.43262	0.044312	-0.025131	-1.4337	1.2329	-1.2378	1.1367	1.3574	-0.5752	24.80694	121.0246	62.35991	8.3125	-11.0391	62.3599	-75	-1
21:05:31:82	0	-0.99974	0.020462	-0.0056119	0.0077976	-0.59131	-0.46631	-0.020248	-2.35	0.62464	-0.90656	2.2109	-1.0439	1.3203	24.80692	121.0246	62.56445	8.47656	-11.1641	62.5644	-74	1.25
21:05:32:13	0	-0.99982	0.01587	-0.009085	0.0057884	0.51953	0.29004	0.012146	-1.8248	1.0304	-0.67983	0.77637	-3.3262	-1.2402	24.80689	121.0247	62.72241	8.89063	-11.6563	62.7224	-74	0
21:05:32:44	0	-0.99985	0.0031902	-0.01656	0.004361	-0.15833	-0.12311	0.038361	-0.374	1.8961	-0.50599	-2.0508	2.293	-0.13489	24.80687	121.0247	62.91481	8.97656	-11.7188	62.9148	-76	-2.25
21:05:32:76	0	-0.99981	0.01668	-0.0088568	0.0042957	0.074646	-0.40918	0.0072784	-1.916	1.0066	-0.50918	0.749512	-5.74609	11.9063	24.80684	121.0248	63.12377	9.24219	-12.1563	63.1238	-74	1.25
21:05:33:07	0	-0.99993	0.0033991	-0.010551	0.0040668	0.65674	-0.49634	-0.07428	-0.39449	1.2075	-0.47021	0.0088882	3.6035	-1.5098	24.80681	121.0248	63.40244	9.52344	-12.4531	63.4024	-77	-7
21:05:33:38	0	-0.9997	0.020627	-0.012841	0.0020347	-0.088196	-0.046356	0.035675	-2.3674	1.4663	-0.26353	-0.62402	-3.3438	1.8418	24.80679	121.0248	63.64108	9.80469	-12.6484	63.6411	-75	-0.75
21:05:33:69	0	-0.99985	0.012187	-0.012486	-0.0014253	0.3667	-0.099426	-0.01178	-1.3949	1.4327	0.14591	-0.5083	-0.14453	-2.2227	24.80676	121.0249	63.88177	10.0938	-12.9063	63.8818	-77	-3.5
21:05:34:00	0	-0.99978	0.019651	-0.0064202	-0.0027923	-0.042664	-0.066467	-0.0037689	-2.25	0.74185	0.30547	1.1211	-1.3057	0.66064	24.80673	121.0249	64.05176	10.3203	-13.1094	64.0518	-77	-6.25
21:05:34:31	0	-0.99992	0.010519	-0.0023464	-0.005846	0.06897	-0.10028	-0.0032349	-1.2039	0.2759	0.66704	-0.44824	0.4541	-1.0645	24.80671	121.025	64.25814	10.5703	-13.3438	64.2581	-77	-3.5
21:05:34:93	0	-0.99992	0.011194	0.0014271	-0.0052003	0.0098572	0.067505	0.0070572	-1.2836	-0.15685	0.5977	1.7764	0.3894	-1.1787	24.80665	121.025	64.7326	10.9219	-13.7891	64.7326	-77	-4
21:05:35:24	0	-0.999945819	0.008050485	7.17E-08	-5.93E+26	-0.18726	0.049622	0.010582	-1.39E-32	1.55E-27	180	-0.93311	1.6396	-1.1104	24.80662	121.0251	64.9532	11.0391	-13.9688	64.9532	-78	-7
21:05:35:55	0	-0.999866247	7.94E+26	-0.011097205	-0.006648466	0.53027	0.4812	0.025635	-180	9.59E-28	-1.60E-27	-0.60596	0.41357	-5.4336	24.80659	121.0251	65.21146	11.2969	-14.2109	65.2115	-77	-8.5
21:05:35:86	0	-0.999046624	0.036409784	-5.50E+36	-0.000614626	0.160034	71.8125	0.0177307	180	2.08E-35	-180	-0.002939224	0.1488037	245.125	5.17E-21	53894.90234	3.26E+23	11.5546875	0.000109792	3.26E+23	-77	-11
21:05:36:48	0	-0.99921703	0.021184795	9.78E-26	6577.5337	-0.23169	0.040009	0.063416	-5.61E-08	-0.000369074	-179.9826	0.36401	0.8623	3.2949	24.8065	121.0253	65.84583	11.7344	-14.3828	65.8458	-78	-7.5
21:05:36:80	0	-0.99925	0.022455	-0.02448	-0.019764	0.1438	-0.078308	-0.0045738	-2.5197	2.8551	2.2034	0.36523	0.90771	1.5547	24.80647	121.0253	66.03233	11.8594	-14.3203	66.0323	-77	-6
141:141:233:59	87	-4.71E+17	1.73E+28	-1.93E-11	-1.09E+29	-0.016449	-0.018982	0.031006	-8.08E-11	18.06993	180	1.8652	0.15405	0.46973	24.80644	121.0254	66.22955	11.9375	-14.2031	66.2296	-77	-8
21:05:37:42	0	-0.99941	0.011128	-0.017241	-0.027688	0.0354	0.046234	0.031555	-1.2206	2.0102	3.1525	-0.13647	0.47729	-0.36914	24.806416	121.02542	1060.9039	11.9375	-14.09375	1060.9039	-77	-9.75
21:05:38:35	0	-0.99918	0.017744	-0.024126	-0.027244	-0.058136	0.13	0.028885	-1.959	2.8189	3.0755	1.084	2.2168	0.47778	24.80633	121.0256	66.96495	11.6094	-13.5078	66.965	-77	-6
149:05:174:34	10816	-0.96743	0.028791	-0.031253	-0.032716	-0.073181	0.060242	0.014374	-3.2841	3.8084	3.7645	-130.75	-0.000130892	0.002195358	4.62E+17	-1.38E-37	-2.56E-19	0.043304	-3.8633	-2.56E-19	-78	-12
21:05:40:22	0	-0.99852	0.00070987	-0.0039998	-0.054224	-0.171875	-0.13513184	1713	-0.056373	0.46208	6.2165	-1.274414	647	-0.7192383	24.65627	121.0258	66.98386	10.8203	-11.8203	66.9839	-77	-9
21:69:104:53	1536	-0.99849	-0.0064747	3.05E-28	-0.054251	0.25122	0.16687	0.032379	0.74087	-0.040253	6.2198	-2.0391	-1.4531	0.95605	24.80616	121.0259	66.92413	10.6797	-11.4688	66.9241	-78	-11.25
53:37:41:46	0	-0.984167576	-1.69E+27	-1.84E-09	-0.043051682	-0.41553	0.029373	0.00073862	180	-2.93E-27	1.25E-34	0.11353	-0.48462	0.087585	24.80609	121.026	66.82353	10.3906	-11.3516	66.8235	-78	-10.25
21:05:41:77	0	-0.99883	-0.019121	0.023699	-0.037667	-0.36182	-0.10504	-0.037689	2.0892	-2.7962	4.2683	-0.75244	-0.65088	-0.91748	24.80607	121.026	66.77265	10.1797	-11.8906	66.7727	-78	-9
21:05:43:33	0	-0.99886	0.022472	-0.037141	-0.019739	0.29004	0.11328	0.046326	-2.496	4.3061	2.1703	0.66699	0.76416	0.20972	24.80595	121.0262	66.61266	10.9922	-16.5313	66.6127	-78	-11
21:05:35:215	47361	-1.33E-15	5.28E-07	-7.34E-22	-0.03784	7752	0.000900745	-0.057922363	-5.38E-17	0.001598339	180	-0.00020826	-0.0035954	-0.0016298	-7.29E-38	53773.4766	66.6603165	-610.5	-2.345703	66.66032	-78	-12.5
21:143:31:63	24624	6.44E-32	1.03E-30	0.00018017	-0.99989	0.00052118	0.032745	0.088745	-0.02064844	1.18E-28	-180	0.00031209	-0.00061989	-0.00084686	-1.10E+25	484.5733032	-4.44E+18	-0.004238129	-0.00046277	-4.44E+18	-78	-12.5
21:07:20:35	0	0.022811	-0.0012314	7.83E-05	-0.99974	-0.388672	-0.406982	-20.875	-0.01218779	-0.1408688	-177.3858	-0.53369	-0.061768	-1.3711	24.3081951	30982.584	62.380806	-5.77344	6.44141	62.3808	-77	-8.75
21:07:21:224	34856	1.06E-20	4.36E+26	99121381376	-0.231240526	0.3144531	532.5	-11.89063	-180	6.08E-26	2.61E-14	0.98096	1.2129	-1.6025	-1674875.5	121.0256729	62.37196732	-5.70313	3.95E-05	62.372	-78	-11.25
21:07:21:28	0	0.012089	-0.0040733	-0.0047227	-0.99991	-0.0094223	51.0313	-0.0388489	0.5355172	-0.4732726	-178.6168	12976	-0.08392334	-303.5	-3.37E-31	9.03E-35	62.3671	-5.65234	6.61719	62.3671	-77	-10.75
21:07:21:91	0	-0.004191298	-0.001251844	-9.07E+26	2.77E-14	24.7813	0.0221405	-0.0365601	-180	5.30E-28	180	0.046203613	-16480	2.76E-05	4.78E-26	52.507	62.2871	-5.54297	6.69141	62.2871	-78	-10.25
21:07:22:83	0	-0.013233	0.0026496	-0.0029585	-0.9999	0.11072	-0.079956	-0.023041	0.3349747	0.3080852	178.4845	-0.64844	0.63037	0.15808	24.80647	121.0255	62.18032	-5.5	7.00391	62.1803	-78	-7.75
21:07:23:46	0	-0.02062	1.73E-12	0.0044313	-0.99975	-0.1817627	8132	1969	-0.5076996	-0.01047126	177.6369	0.094116211	-22272	-3986	2.63E-21	2030470784	62.16765976	-5.48828	7.07813	62.1677	-77	-9
21:07:23:77	0	-0.022611585	2.43E-12	-444745408	3.73E-16	-0.1698	-0.037445	0.73779	-180	5.83E-09	-180	-0.49878	0.47729	-0.24915	8.67181015	-1.14E-37	-1591264768	0.238525391	8.21875	-1591264768	-78	-12
21:82:24:167	18504	8.20E+31	3.02E-23	-3.67715764	8.77E-18	-0.74072	0.86865	0.00010329	4.22E-53	-5.14E-30	1.23E-47	12.3906	0.910156	-2.17E-05	-2.18E-17	-9.625039	194.5795	0.000202179	2.673828	194.5795	-78	-12.5
21:07:25:33	0	-0.0202	0.0066081	0.018749	-0.9996	0.65576	0.50195	0.051025	-2.163628	0.7135446	177.6712	-1.1934	5.7188	-1	24.80658	121.0253	62.24073	-5.85938	7.38672	62.2407	-77	-10
21:07:25:64	0	-0.021139	0.011081	-0.0086124	-0.99968	-0.73389	-0.10083	0.0015831	0.9600404	1.290406	177.588	-1.8008	-3.1328	-0.93262	24.8066	54.0127	8.43E-19	-5.82031	14.5234	8.43E-19	-77	-9.75
21:07:25:95	8224	-1.24E-21	0.012849294	-2.20E+17	-0.999573827	-0.23462	-0.1311	-0.018784	180	3.10E-35	-180	-0.93066	-0.4314	-0.65088	24.80661	121.0253	62.2014	-5.91016	7.41797	62.2014	-77	-6
21:07:26:26	0	-0.026388	0.011394	0.0021886	-0.99958	0.24292	0.26929	0.0054855	-0.2852218	1.298632	176.9724	-1.1191	-0.76758	-1.1504	24.80662	121.0253	62.15176	-6.04297	7.61328	62.1518	-77	-1.75
21:07:26:57	0	-0.026824	0.021839	0.0084734	-0.99937	0.13562	1.5361	0.02507	-1.038523	2.475703	176.9026	1.4189	0.73779	-0.18616	24.80664	121.0253	62.15518	-6.125	7.69922	62.1552	-77	-8.25
21:07:26:88	0	-0.023211	0.019194	0.012553	-0.99947	-0.26538	0.075806	0.076294	-1.489941	2.165392	177.3111	-0.30029	2.043	0.46021	24.80665	121.0252	62.09834	-6.11719	7.70313	62.0983	-76	-3.5
21:07:27:19	0	-0.020413	0.0087721	0.0024095	-0.99975	0.060822	0.029617	-0.015106	-0.2966092	0.999374	177.658	-0.27075	0.25806	-0.0012007	-1625729.75	121.0251999	62.10067749	-6.23438	7.80469	62.1007	-77	-5.25
21:07:28:43	0	-0.035744	0.0062805	1.04E-06	-0.99934	0.1156	-0.0029526	-0.048981	-0.02584582	0.7192288	175.903	-0.17932	0.2218	0.53857	25.33795738	2.69198E+11	62.02941132	-6.28516	8.1875	62.0294	-78	-6.25
21:07:28:75	0	-0.036566	0.015956	0.0029506	-0.9992	0.22119	0.1106	0.010834	-0.4049124	1.814889	175.8019	2.002	0.66943	-0.4209	24.80675	121.0251	61.98606	-6.26953	8.25	61.9861	-76	-1.5
21:07:29:05	0	-0.034612	0.012313	0.004193	-0.99932	0.31519	-0.011978	-0.0017862	-0.5291507	1.393546	176.0262	0.82324	-0.041687	-1.834	24.80676	121.025	61.95211	-6.30859	8.35156	61.9521	-75	-0.75
21:07:29:37	0	-0.03784	0.010354	-0.00014402	-0.99923	-0.21741	-0.14124	-0.0513	-0.02841172	1.186286	175.6623	1.6748	-0.27881	0.58398	24.80678	121.025	61.96665	-6.26563	8.17969	61.9667	-76	-0.5
21:07:29:67	0	-0.038824089	0.021228844	0.011625862	-3.34E+38	0.69531	1.9346	-0.0062218	-3.99E-39	7.28E-39	180	1.57617	1.84277	-15.5391	24.8068	121.025	62.00023	-6.47266	8.49219	62.0002	-75	-0.75
21:07:29:99	0	-0.03579542	0.022395369	-5.00E+37	-0.999099433	-0.31763	0.44824	0.069519	180	8.20E-38	-180	1.4609	-1.5654	-3.2539	24.80682	121.025	62.01384	-6.51172	8.42969	62.0138	-77	-6.75
21:07:30:30	0	-0.034847	0.017739	-0.0049138	-0.99922	-0.84033	-0.40259	0.072144	0.4921246	2.051218	176.0142	0.000104487	3.42773	11.4375	13.43077	121.0249	61.97689	-6.30859	8.26563	61.9769	-77	-9.25
21:07:30:61	0	-0.034429	0.0082374	-0.0034724	-0.99937	0.63135	-0.09082	-0.043304	0.3652144	0.9570851	176.0569	-0.31421	-0.26294	1.0322	24.80685	121.0249	61.89661	-6.44141	8.50781	61.8966	-73	2.5
21:07:30:92	0	-0.036523	0.0035226	0.00020427	-0.99933	-0.2688	-0.19751	-0.010521	-0.03813509	0.4025337	175.8137	-1.2383	0.24646	0.28809	24.80687	121.0249	61.80492	-6.44141	8.42188	61.8049	-74	0.25
21:07:31:23	0	-0.039449	0.0041493	-0.0043618	5.17E-13	-0.20837	-0.076111	0.0034142	-12.1546	12.4803	-1.33398	-0.98389	-1.5156	-1.4883	24.80688	121.0249	61.73986	-6.41016	9.07813	61.7399	-77	-11
21:07:31:54	0	-0.043739	0.013258	-0.0056486	-0.99894	0.4812	0.083313	-0.056152	0.5803682	1.546147	174.9936	0.63135	-1.3447	-0.5376	24.8069	121.0248	61.68708	-6.40625	8.63281	61.6871	-70	4.5
21:07:31:85	0	-0.044778	0.01376	0.00086349	-0.9989	-0.15369	-0.12042	0.00085926	-0.1695107	1.570856	174.8643	-0.14832	1.1016	-0.47607	24.80692	121.0248	61.61275	-6.39453	8.59375	61.6128	-74	0.75
21:07:32:16	0	-0.043994	0.017764	-0.0082858	-0.99884	0.032806	-0.081665	0.022568	0.8594186	2.075521	174.9716	1.1904	-1.8154	-1.1777	24.80694	121.0248	61.50439	-6.39453	8.6875	61.5044	-73	2.5
21:07:32:48	0	-0.045702	0.011075	0.0032746	-0.99889	0.28784	-0.060364	-0.041595	-0.4329272	1.250595	174.756	0.44629	1.6543	-1.6064	24.80696	121.0248	61.42525	-6.41797	8.77344	61.4253	-72	2.75
21:07:32:79	0	-0.049152	0.022118	0.00597	-0.99853	-0.13928	-0.075134	-0.0020943	-0.8084804	2.498006	174.3462	-0.81738	-0.15979	0.53857	24.80697	121.0247	61.40222	-6.43359	8.76563	61.4022	-73	2.25
21:07:33:41	0	-0.042054	0.020533	-0.00019779	-0.99891	0.479	0.25171	-0.060455	-0.07637241	2.351934	175.177	1.5732	-0.98975	-1.6084	24.80701	121.0247	61.3588	-6.43359	8.73438	61.3588	-74	0.75
21:07:33:72	0	-0.039511	0.025191	0.0027954	-0.9989	0.79297	0.38574	0.017365	-0.4345789	2.872005	175.4588	2.1055	0.18933	0.27832	24.80703	121.0247	61.35588	-6.97266	8.73438	61.3559	-77	-8
21:07:34:03	0	-0.039386	0.024388	0.0048529	-0.99891	-0.45776	0.20471	0.054474	-0.6663634	2.77079	175.468	1.9072	0.13416	0.13538	24.80705	121.0246	61.37369	-6.37109	8.4375	61.3737	-74	1.5
21:07:34:34	0	-0.039291	0.017602	0.00054178	-0.99907	0.0083084	-0.17578	-0.026871	-0.1413636	2.013131	175.4933	1.6172	-0.14526	1.6494	24.80706	121.0246	61.34093	-6.1875	8.28906	61.3409	-75	-2.5
21:07:34:66	0	-0.039845	0.013256	-0.0044678	-0.99911	0.079285	-0.039215	-0.032867	0.4511537	1.538213	175.4385	0.34253	1.5205	2.3086	24.80708	121.0246	61.34941	-6.09766	8.11719	61.3494	-68	5
21:07:34:96	0	-0.041026	0.012259	-0.0014344	-0.99908	-0.098267	0.18286	-0.00387	0.1066194	1.41038	175.2984	-1.0049	-0.33838	1.2559	24.8071	121.0245	61.31405	-5.94531	7.88281	61.3141	-74	1.25
21:07:35:28	0	-0.042418	0.012564	0.0023176	-0.99902	-0.19238	0.1853	0.023331	-0.3264955	1.427236	175.1333	0.18286	0.35791	1.2773	24.80712	121.0245	61.28633	-5.75	7.64063	61.2863	-70	3.75
21:07:35:58	0	-0.04391	0.012094	0.0013003	-0.99896	-0.11133	0.25464	0.050018	-0.2097703	1.37807	174.9638	2.5742	0.38062	1.1455	24.80713	121.0245	61.24812	-5.52734	7.39063	61.2481	-60	6.5
21:07:35:90	0	-0.044479	0.0059135	0.001662	-0.99899	-0.14038	0.12988	0.04303	-0.2204158	0.6685028	174.9	-0.46729	0.020599	1.3164	24.80715	121.0245	61.189	-5.32813	7.17578	61.189	-58	6.25
21:07:36:21	0	-0.048748	-0.0047499	-0.0092793	-0.99876	-0.22009	-0.012169	-0.028473	1.088646	-0.491792	174.4067	-1.1846	-2.3945	-0.75293	24.80716	121.0245	61.14866	-5.08594	6.87109	61.1487	-63	5.75
21:07:36:52	0	-0.057109	-0.0082109	-0.022253	-0.99809	0.088013	-0.2207	-0.054077	2.599967	-0.7934934	173.4323	0.30908	0.13293	2.3691	24.80718	121.0244	61.08266	-4.73438	6.70313	61.0827	-61	6
175:167:36:89	0	-0.064698	-0.018585	-0.021708	-0.9975	-0.084778	-0.11975	-0.065063	2.62155	-1.963816	172.5331	0.053162	-1.1768	0.5376	24.80719	121.0244	61.00752	-4.46875	6.52344	61.0075	-58	6
21:07:37:14	0	-0.082994	-0.02849	-0.029386	-0.99571	0.062256	-0.067871	-0.1333	3.631191	-2.972529	170.3764	0.979	-0.51611	0.43213	24.80721	121.0244	60.9093	-4.17578	6.35938	60.9093	-58	6
21:07:37:45	0	-0.10439	-0.030371	-0.034692	-0.99347	0.15894	-0.086365	-0.13953	4.322961	-3.043941	167.8881	2.7051	-0.082031	1.4639	24.80722	121.0244	60.8478	-3.74609	6.16797	60.8478	-60	6.5
21:07:37:76	0	-0.13114	-0.029993	-0.035222	-0.99028	0.20215	0.15417	-0.1416	4.457704	-2.875449	164.801	1.5527	-1.3096	-1.2646	24.80723	121.0244	60.77665	-3.44336	6.11719	60.7766	-54	5.75
21:07:38:07	0	-0.15045	-0.027242	-0.015294	-0.98812	-0.31836	-0.052582	-0.10944	2.204583	-2.822121	162.6313	0.5415	0.46948	-0.30664	24.80725	121.0243	60.69119	-3.04883	5.81641	60.6912	-59	6
21:07:38:39	0	-0.16959	-0.02121	-0.018356	-0.98512	-0.14233	0.1123	-0.039917	2.486681	-2.038072	160.42	-0.50244	-2.2461	2.125	24.80726	121.0243	60.64006	-2.74414	5.70703	60.6401	-56	6.25
21:07:38:70	0	-0.18595	-0.018205	-0.020841	-0.98217	-0.27124	0.10828	-0.083069	2.735668	-1.605101	158.5199	0.396	-2.627	-0.73584	24.80727	121.0243	60.59697	-2.46484	5.42578	60.597	-57	6.25
21:07:39:01	0	-0.20026	-0.018836	-0.011572	-0.97949	-0.49146	0.2478	0.0052414	1.732237	-1.848958	156.8617	1.1416	0.72119	0.36255	24.80729	121.0243	60.55111	-2.21094	5.26563	60.5511	-55	6.5
21:07:39:32	0	-0.21509	-0.02219	-0.01785	-0.97618	0.45752	0.3501	-0.13062	2.54608	-2.042689	155.1022	1.1963	0.13403	-1.5723	24.8073	121.0243	60.50959	-1.97559	5.125	60.5096	-61	6
21:07:39:63	0	-0.23606	-0.014716	-0.013159	-0.97154	-0.33594	0.080811	-0.064453	1.863882	-1.282504	152.666	2.877	0.79297	4.9609	24.80731	121.0243	60.44702	-1.62305	4.62891	60.447	-58	5.75
21:07:39:94	0	-0.25402	-0.021912	-0.02326	-0.96667	0.14038	0.15918	-0.08252	3.217558	-1.750411	150.5048	-1.5068	-4.3242	-4.1797	24.80733	121.0243	60.41444	-1.38379	4.40625	60.4144	-61	6.25
21:07:40:25	0	-0.27099	-0.030004	-0.020814	-0.96189	0.14648	-0.02507	-0.11267	3.231122	-2.661798	148.4566	0.13867	-1.6953	-0.4519	24.80734	121.0243	60.39103	-1.09473	4.03906	60.391	-60	6
21:07:40:57	0	-0.30224	-0.032975	-0.013769	-0.95256	-0.30127	0.051392	-0.24768	2.649845	-3.124072	144.7207	0.48633	-0.82715	-1.5332	24.80735	121.0243	60.36561	-0.921387	3.72266	60.3656	-60	6.25
21:07:40:87	0	-0.33448	-0.028529	-0.019362	-0.94177	0.13428	0.045471	-0.18445	3.187233	-2.33735	140.8294	0.49585	-0.35718	3.8438	24.80736	121.0243	60.3384	-0.575684	3.50586	60.3384	-61	6.25
21:07:41:19	0	-0.35602	-0.028406	-0.03411	-0.93342	0.14539	-0.094543	-0.18921	4.815034	-1.646995	138.1758	-0.97217	-5.0625	-3.5996	24.80737	121.0243	60.34149	-0.359131	3.07227	60.3415	-60	6
21:07:41:50	0	-0.38525	-0.036503	-0.017325	-0.92193	0.10681	-0.05899	-0.25659	3.448956	-3.093049	134.5489	0.32764	0.12891	-1.5361	24.80737	121.0243	60.30043	-0.149536	2.86719	60.3004	-62	6
21:07:41:81	0	-0.42625	-0.043535	-0.021732	-0.9033	-0.051788	-0.082397	-0.35156	4.38817	-3.446917	129.3446	-0.56592	-0.8457	0.85938	24.80738	121.0242	60.27409	0.013176	2.59961	60.2741	-62	6.25
21:07:42:12	0	-0.48066	-0.037521	-0.018107	-0.87592	-0.08136	0.014015	-0.41284	3.89154	-2.769824	122.3946	0.58057	-1.332	0.27026	24.80739	121.0242	60.24473	0.229736	2.47852	60.2447	-69	4.75
21:07:42:43	0	-0.53639	-0.016628	-0.015554	-0.84367	-0.25171	0.16431	-0.41821	2.526766	-0.6514976	115.0907	0.13159	-0.41602	-1.3184	24.8074	121.0242	60.22988	0.370117	2.36133	60.2299	-63	5.75
21:07:42:74	0	-0.5776	0.017579	-0.011994	-0.81604	-0.26123	0.20215	-0.20483	-0.04201327	2.438402	109.4162	1.0498	-0.98291	-1.2285	24.8074	121.0242	60.20902	0.574707	2.21289	60.209	-70	3.5
21:07:43:05	0	-0.57974	0.040138	-0.0063195	-0.81379	-0.13416	0.096802	0.091492	-2.083111	4.166452	108.9925	-0.053833	1.1514	0.60254	24.80741	121.0242	60.18387	0.662109	2.15625	60.1839	-67	5.25
21:07:43:36	0	-0.55327	0.052158	-0.0040888	-0.83135	0.12451	0.17981	0.25415	-2.930835	5.235435	112.5777	-1.3496	0.20227	-0.51611	24.80742	121.0242	60.16799	0.583496	2.13867	60.168	-74	1
21:07:43:67	0	-0.51189	0.060236	-0.0064141	-0.85691	0.13904	0.061798	0.34277	-2.922425	6.303765	118.1335	0.51465	0.33496	-1.3379	24.80742	121.0242	60.14383	0.384766	1.99512	60.1438	-74	1.25
21:07:43:98	0	-0.46029	0.069678	-0.0068955	-0.885	-0.17065	0.027756	0.41064	-3.00263	7.451039	124.8466	-1.2002	-0.64404	-1.5049	24.80743	121.0243	60.12641	0.110657	1.89746	60.1264	-73	2.25
21:07:44:29	0	-0.3849	0.068265	0.0020233	-0.92043	-0.29688	-0.32104	0.59375	-3.251125	7.129244	134.4111	-0.12311	0.4707	-0.17554	24.80743	121.0242	60.10011	-0.0192108	1.81543	60.1001	-68	5.25
21:07:44:60	0	-0.30406	0.065883	0.0073989	-0.95034	-0.27173	0.021957	0.57959	-3.125661	6.933847	144.327	-1.3965	-1.2852	-0.1554	24.80744	121.0242	60.07946	-0.354004	1.80859	60.0795	-66	5.25
21:07:44:92	0	-0.21786	0.074518	0.016755	-0.97299	-0.061615	-0.027588	0.62061	-3.767062	7.915321	154.4971	-0.77686	-0.55322	-1.0049	24.80744	121.0242	60.05932	-0.548828	1.63184	60.0593	-67	5.5
21:07:45:23	0	-0.1071	0.068638	0.019293	-0.99169	0.095276	-0.021286	0.80908	-3.063109	7.585303	167.4688	-0.51172	-1.3525	-3.1895	24.80745	121.0242	60.02671	-0.654297	1.47461	60.0267	-63	5.75
21:07:45:54	0	0.020903	0.049832	0.016618	-0.9984	0.0091553	-0.18579	0.79443	-1.79115	5.75065	-177.6912	-1.5264	0.1178	-0.049805	24.80745	121.0242	60.00887	-0.860352	1.27637	60.0089	-68	5
21:07:45:85	0	0.12853	0.041934	0.016687	-0.99068	-0.1123	-0.037292	0.59668	-1.281785	5.012692	-165.2714	0.82764	-2.0371	-0.59912	24.80745	121.0242	59.9809	-1.08496	1.02637	59.9809	-66	5.25
21:07:46:16	0	0.20829	0.043121	0.020153	-0.97691	-0.0037556	0.09436	0.49438	-1.232231	5.315889	-155.9851	0.81885	-1.2637	-0.6001	24.80745	121.0242	59.94587	-1.11426	0.757324	59.9459	-58	6.25
21:07:46:47	0	0.29335	0.037619	0.02348	-0.95498	0.045837	-0.11438	0.59619	-1.309789	4.912035	-145.9045	-0.66064	0.82959	1.0166	24.80745	121.0242	59.91252	-1.08691	0.632324	59.9125	-68	4.5
21:07:46:78	0	0.37713	0.032779	0.020981	-0.92534	-0.1427	-0.046997	0.50879	-0.8105744	4.386793	-135.6832	2.0391	-0.38354	-0.74805	24.80745	121.0242	59.87931	-0.977051	0.368408	59.8793	-65	5.25
21:07:47:09	0	0.44095	0.027409	0.021543	-0.89685	0.03775	-0.019485	0.4375	-0.8309887	3.908455	-127.6647	0.7998	-0.21375	0.6167	24.80745	121.0242	59.84276	-0.925293	0.21814	59.8428	-74	0.5
21:07:47:41	0	0.49846	0.022951	0.027604	-0.86617	0.024597	0.0058746	0.42822	-1.432298	3.85762	-120.2093	0.72803	-0.30078	-0.9917	24.80745	121.0242	59.79689	-0.804199	0.125244	59.7969	-62	6.25
21:07:47:71	0	0.55568	0.0158	0.028052	-0.83077	-0.19849	-0.065186	0.40796	-1.667466	3.292248	-112.4928	-0.78809	0.47461	0.88184	24.80745	121.0242	59.7657	-0.711426	-0.00458527	59.7657	-63	6.5
21:07:48:03	0	0.60264	0.010656	0.034033	-0.79722	-0.050537	0.062195	0.34741	-2.377857	3.325522	-105.8954	0.44263	0.055115	1.7422	24.80745	121.0242	59.74051	-0.53418	-0.127441	59.7405	-60	6.25
21:07:48:33	0	0.64184	0.012412	0.045101	-0.76541	-0.16333	0.11792	0.32935	-3.053399	4.410213	-100.1542	1.1855	-0.57129	0.86377	24.80745	121.0242	59.72355	-0.340088	-0.166626	59.7235	-64	5.5
21:07:48:65	0	0.68758	0.0018847	0.053887	-0.72411	0.11133	-0.13562	0.43384	-4.3398	4.4065	-93.1315	-1.1914	0.11835	-1.1416	24.80745	121.0242	59.68854	-0.370117	-0.0889893	59.6885	-65	5.75
21:07:48:96	0	0.73674	-0.0041873	0.036847	-0.67516	-0.11017	-0.2373	0.45093	-3.20972	2.7879	-85.0832	0.87695	-0.38721	-1.6543	24.80744	121.0242	59.65451	-0.403564	-0.140991	59.6545	-72	3
21:07:49:27	0	0.77576	-0.0065605	0.011844	-0.63088	-0.13074	-0.037109	0.27271	-1.43963	0.57857	-78.2457	0.81738	-1.4395	1.3057	24.80744	121.0242	59.62407	-0.4021	-0.401367	59.6241	-64	5.5
21:07:49:58	0	0.78966	-0.011727	0.0029469	-0.61343	-0.14368	0.11481	0.086426	-1.26846	-0.557676	-75.6759	1.6572	0.99658	0.43677	24.80744	121.0242	59.60225	-0.400635	-0.611816	59.6022	-62	6
21:07:49:89	0	0.78428	-0.0073498	0.0030812	-0.62036	-0.087585	0.22913	-0.094849	-0.879621	-0.245571	-76.6852	0.89551	-0.27588	0.67432	24.80744	121.0242	59.59899	-0.412354	-0.683594	59.599	-58	6.25
21:07:50:20	0	0.76856	-0.0061057	0.01912	-0.63946	-0.10791	0.096985	-0.13818	-1.93961	1.2366	-79.5435	0.057922	1.249	0.40625	24.80743	121.0242	59.56443	-0.330078	-0.581055	59.5644	-69	4.75
21:07:50:51	0	0.75475	0.0043021	0.023509	-0.65557	-0.020004	0.015022	-0.096375	-1.39528	2.35708	-81.9832	1.0107	1.4678	0.29248	24.80743	121.0242	59.52999	-0.259277	-0.3479	59.53	-59	5.75
21:07:50:83	0	0.74632	0.0013491	0.02527	-0.6651	-0.065857	-0.03894	-0.041504	-1.81227	2.26452	-83.4491	1.4023	0.26196	-0.25391	24.80743	121.0242	59.50372	-0.00482941	-0.0640869	59.5037	-59	6
21:07:51:14	0	0.74664	0.0013152	0.020087	-0.66493	-0.026581	-0.038391	0.039063	-1.41883	1.81909	-83.3967	0.81836	0.55811	0.53467	24.80743	121.0242	59.46465	0.139771	0.135132	59.4646	-62	6.5
21:07:51:45	0	0.74723	-0.0017475	0.017627	-0.66433	0.04184	-0.052429	-0.015671	-1.49215	1.37647	-83.2959	-1.207	0.38843	-0.17773	24.80743	121.0242	59.45341	0.276123	0.253906	59.4534	-60	5.75
21:07:51:76	0	0.74777	-0.00085213	0.01381	-0.66381	0.0099869	0.033661	-0.0068741	-1.12382	1.11864	-83.2034	0.42261	-0.17493	0.15735	24.80743	121.0242	59.4244	0.371826	0.287354	59.4244	-59	5.75
21:07:52:07	0	0.74779	-0.0017874	0.015348	-0.66375	-0.035339	-0.035339	0.0064049	-1.32091	1.17928	-83.1994	-0.071045	-0.18982	-0.2876	24.80743	121.0242	59.41494	0.361816	0.295898	59.4149	-60	5.75
21:07:52:38	0	0.74775	-0.0048608	0.016356	-0.66376	0.006012	0.030914	-0.0063171	-1.66109	1.03185	-83.2041	0.030487	0.21069	1.2783	24.80743	121.0242	59.41029	0.276611	0.197876	59.4103	-65	5
21:07:52:69	0	0.74772	-0.0042463	0.020808	-0.66368	-0.016617	0.045319	-0.010643	-1.9473	1.46005	-83.21	-0.41138	-0.20227	-0.58301	24.80743	121.0242	59.38786	0.251709	0.135254	59.3879	-64	5.75
21:07:53:00	0	0.7478	-0.003275	0.02237	-0.66354	-0.010521	0.0057716	0.0022335	-1.98279	1.66811	-83.1962	-0.96777	-0.041443	-0.019531	24.80743	121.0242	59.35475	0.214966	0.180786	59.3547	-60	5.75
21:07:53:31	0	0.74799	-0.0030689	0.019395	-0.66342	-0.0090561	-0.055664	0.0068779	-1.73829	1.42921	-83.1644	0.13562	0.11475	-0.68896	24.80743	121.0242	59.3304	0.229248	0.199585	59.3304	-58	6
21:07:53:62	0	0.74807	-0.0038068	0.016116	-0.66341	0.11377	-0.051666	0.02475	-1.55195	1.09217	-83.1499	0.58301	1.5361	-0.88037	24.80743	121.0242	59.31874	0.209229	0.202026	59.3187	-59	7.25
21:07:53:93	0	0.74817	-0.0044267	0.014629	-0.66334	-0.02858	0.033264	-0.013634	-1.49186	0.917734	-83.1333	0.89209	0.27319	-1.2852	24.80743	121.0242	59.3013	0.240723	0.192139	59.3013	-59	6.25
21:07:54:25	0	0.74808	-0.0037091	0.014879	-0.66343	0.021744	0.0096664	0.0036259	-1.44948	0.993532	-83.1492	-1.0332	-0.64209	0.7793	24.80743	121.0242	59.27206	0.234985	0.17749	59.2721	-59	5.75
21:07:54:55	0	0.7482	-0.0038423	0.017252	-0.66324	0.0029774	0.0096054	0.018753	-1.64117	1.1872	-83.127	0.49976	0.55273	0.09375	24.80743	121.0242	59.26352	0.245361	0.202271	59.2635	-60	5.75
21:07:54:87	0	0.74805	-0.0029414	0.018314	-0.66338	-0.00028539	0.033936	-0.016479	-1.64499	1.3464	-83.1532	0.60645	-0.74268	-1.0889	24.80743	121.0242	59.25168	0.260742	0.209106	59.2517	-61	6.5
21:07:55:17	0	0.74805	-0.0023467	0.02229	-0.66326	-0.079529	-0.0077286	0.0065193	-1.89652	1.73263	-83.1522	0.65039	-0.22644	1.5469	24.80743	121.0242	59.24078	0.258789	0.200562	59.2408	-58	6
21:07:55:49	0	0.74802	-0.0022764	0.025286	-0.66319	0.028488	0.027557	-0.0030556	-2.11849	1.99481	-83.1567	-0.50391	0.19202	0.19031	24.80743	121.0242	59.21104	0.238281	0.203735	59.211	-59	6.25
21:07:55:80	0	0.74826	-0.0024469	0.02662	-0.66286	0.026077	0.082703	-0.0049515	-2.23385	2.0971	-83.1141	0.0020485	0.086426	-0.99463	24.80743	121.0242	59.18648	0.246582	0.210938	59.1865	-60	6
21:07:56:11	0	0.74819	-0.0024507	0.028272	-0.66288	0.016678	-0.022171	0.0069084	-2.36012	2.23836	-83.1261	-0.6416	0.12299	1.1582	24.80743	121.0242	59.15862	0.242432	0.226318	59.1586	-65	5.5
21:07:56:42	0	0.74823	-0.0012477	0.026725	-0.6629	0.012878	-0.049011	0.0013952	-2.13919	2.19719	-83.1208	-0.49829	-0.39893	-0.64502	24.80743	121.0242	59.13159	0.222778	0.237183	59.1316	-59	5.75
21:07:56:73	0	0.74835	-0.001405	0.026522	-0.66278	0.030685	0.0010643	0.011642	-2.1368	2.16817	-83.1002	-0.30444	-0.076355	0.69092	24.80743	121.0242	59.07344	0.231079	0.219604	59.0734	-60	5.75
21:07:57:04	0	0.74849	-0.0018727	0.027719	-0.66256	0.02005	0.041748	0.0071945	-2.2675	2.23587	-83.0748	0.85254	0.45459	-0.0080261	24.80743	121.0242	59.04868	0.244873	0.230713	59.0487	-59	5.75
21:07:57:35	0	0.74851	-0.0022311	0.029555	-0.66246	-0.039551	-0.0075188	-0.0020618	-2.43779	2.36633	-83.0707	0.13623	-0.26025	1.1309	24.80743	121.0242	59.03983	0.213867	0.241943	59.0398	-59	6
21:07:57:66	0	0.74863	-0.0026028	0.025586	-0.66249	0.033661	-0.0041313	0.0069427	-2.16751	1.99774	-83.052	0.29028	-0.074219	0.28174	24.80743	121.0242	59.02734	0.21106	0.241333	59.0273	-60	6
21:07:57:98	0	0.74902	-0.0023949	0.023214	-0.66214	-0.0070724	-0.0062218	0.006485	-1.96832	1.81109	-82.9851	0.56689	-0.1886	2.4004	24.80743	121.0242	58.98768	0.195068	0.232544	58.9877	-58	6
21:07:58:29	0	0.7491	-0.0023231	0.022383	-0.66208	0.015961	0.0016651	0.0048752	-1.89879	1.74536	-82.9717	0.41724	-0.49707	0.27197	24.80743	121.0242	58.97033	0.220825	0.213013	58.9703	-60	6
21:07:58:60	0	0.74925	-0.0019545	0.023856	-0.66186	0.025925	-0.010445	0.0088425	-1.97864	1.90037	-82.945	-1.2422	-0.38477	0.015015	24.80743	121.0242	58.95807	0.175537	0.242432	58.9581	-59	5.75
21:07:58:91	0	0.74953	-0.0027018	0.016291	-0.66176	0.039825	-0.091614	0.0065079	-1.46797	1.19447	-82.8983	-0.47998	-0.63135	-0.29541	24.80743	121.0242	58.91908	0.138306	0.269775	58.9191	-58	6.5
21:07:59:22	0	0.74958	-0.0030297	0.0071217	-0.66186	0.030991	-0.0057068	0.0043411	-0.800414	0.381943	-82.8899	-0.23914	0.61865	0.0013695	24.80743	121.0242	58.87732	0.144531	0.247314	58.8773	-57	6.25
21:07:59:53	0	0.74974	-0.0029822	0.0030244	-0.66172	0.0098877	0.015358	-0.0039291	-0.485551	0.0337117	-82.8631	-0.099426	-0.19495	-0.069275	24.80743	121.0242	58.85914	0.180908	0.221313	58.8591	-57	7
21:07:59:84	0	0.74979	-0.0025121	0.0048804	-0.66165	0.020935	0.036926	-0.0054741	-0.585877	0.228857	-82.8542	-1.6064	0.030136	0.80078	24.80743	121.0242	58.86652	0.184204	0.204712	58.8665	-56	6.5
21:08:00:16	0	0.74995	-0.0027464	0.0079251	-0.66144	-0.0466	0.0067902	-0.0041466	-0.836765	0.472915	-82.8268	1.2344	0.76563	-1.6357	24.80743	121.0242	58.85243	0.184326	0.224365	58.8524	-57	6.25
21:08:00:46	0	0.75017	-0.0020911	0.0082366	-0.66119	-0.013031	0.026352	-0.0050011	-0.803884	0.549624	-82.7882	0.10931	-0.45264	-1.4717	24.80743	121.0242	58.80653	0.157349	0.206299	58.8065	-57	6.25
21:08:00:78	0	0.75009	-0.0029267	0.0075904	-0.66129	0.048981	-0.019638	0.0037422	-0.826799	0.430648	-82.8031	-0.14832	0.58105	-1.3564	24.80743	121.0242	58.79667	0.153076	0.213379	58.7967	-58	6.25
21:08:01:08	0	0.75011	-0.002676	0.007874	-0.66127	0.011894	0.0024185	0.012383	-0.826727	0.474042	-82.8	0.0019073	0.59668	0.62939	24.80743	121.0242	58.78418	0.150146	0.217651	58.7842	-58	6
21:08:01:40	0	0.75029	-0.0024481	0.007017	-0.66107	0.020523	-0.010338	-0.0027866	-0.742078	0.417848	-82.7688	-0.98145	0.26001	-0.20154	24.80743	121.0242	58.75243	0.134644	0.211792	58.7524	-58	6.5
21:08:01:71	0	0.75049	-0.0022264	0.0072283	-0.66083	0.0098572	0.019791	-0.0039005	-0.738889	0.453047	-82.7329	0.69043	-0.71777	-1.0508	24.80743	121.0242	58.70619	0.132202	0.188354	58.7062	-58	6.5
21:08:02:02	0	0.75053	-0.0025765	0.0073932	-0.66079	0.032501	-0.024124	0.0090408	-0.781462	0.440759	-82.7265	0.16272	0.41699	-0.85498	24.80743	121.0242	58.69722	0.127197	0.19812	58.6972	-58	6
21:08:02:33	0	0.75052	-0.0023191	0.0077474	-0.6608	0.011963	0.0070877	0.015793	-0.786152	0.490697	-82.7291	0.34033	0.85645	0.4646	24.80743	121.0242	58.67782	0.122925	0.206055	58.6778	-57	6.25
21:08:02:64	0	0.75061	-0.0024162	0.0082805	-0.66068	-0.048859	-0.028702	0.010246	-0.834795	0.529319	-82.7118	-0.65674	-1.0938	0.34302	24.80743	121.0242	58.67985	0.112	0.200684	58.6798	-57	6.25
21:08:02:95	0	0.75071	-0.0023942	0.0082628	-0.66058	0.0099716	-0.0029488	-0.0037098	-0.83149	0.529585	-82.6955	-1.0977	-0.53662	0.93115	24.80743	121.0242	58.65089	0.10083	0.19458	58.6509	-57	6.25
21:08:03:26	0	0.75077	-0.0020867	0.0081806	-0.66051	0.057465	0.010056	-0.0066757	-0.79876	0.545871	-82.6843	-1.4297	-0.051727	1.0449	24.80743	121.0242	58.64202	0.0942993	0.205078	58.642	-57	6
21:08:03:57	0	0.75077	-0.0022128	0.0079282	-0.66051	-0.026596	0.0010824	-0.004303	-0.790509	0.514606	-82.6846	0.29541	-0.41309	0.22534	24.80743	121.0242	58.65761	0.100525	0.208252	58.6576	-57	6.25
21:08:03:89	0	0.75087	-0.0019335	0.0082096	-0.6604	-0.0096588	-0.01741	0.0083923	-0.787705	0.560068	-82.6682	-0.54541	-0.035461	-0.31348	24.80743	121.0242	58.64342	0.092041	0.213623	58.6434	-57	6.25
21:08:04:20	0	0.75095	-0.0024053	0.0082969	-0.6603	0.0097122	-0.0062218	0.0012674	-0.834829	0.531979	-82.6532	1.4346	0.94189	-1.2842	24.80743	121.0242	58.63963	0.0901489	0.216553	58.6396	-57	6
21:08:04:51	0	0.75102	-0.0019303	0.0079006	-0.66023	0.0042915	0.020279	0.0084457	-0.763918	0.533894	-82.6424	0.62891	0.71582	-0.17859	24.80743	121.0242	58.61447	0.0762329	0.21167	58.6145	-57	6.25
21:08:04:82	0	0.75099	-0.0016342	0.0081279	-0.66026	-0.01004	-0.011383	0.0030479	-0.755659	0.575833	-82.6464	-0.54883	-0.1908	-0.56006	24.80743	121.0242	58.61401	0.0717163	0.211426	58.614	-58	6
21:08:05:13	0	0.75103	-0.0021701	0.0081535	-0.66021	0.06131	-0.018951	0.0039406	-0.803672	0.537537	-82.639	0.47119	0.57617	-1.0137	24.80743	121.0242	58.60089	0.0666504	0.21521	58.6009	-63	6
21:08:05:44	0	0.75107	-0.0017719	0.0075425	-0.66017	0.061096	0.028336	0.01358	-0.723144	0.515121	-82.6324	1.4277	0.10626	-0.080933	24.80743	121.0242	58.58372	0.0726318	0.218262	58.5837	-58	6
21:08:05:75	0	0.75114	-0.0019983	0.0076915	-0.6601	-0.066406	0.023193	-0.013855	-0.753853	0.51089	-82.6216	-0.479	0.10699	-1.0586	24.80743	121.0242	58.55629	0.0505981	0.202026	58.5563	-59	6
21:08:06:06	0	0.75108	-0.0015279	0.0081602	-0.66016	-0.016922	0.010689	-0.002388	-0.748872	0.586756	-82.6319	-0.17456	-0.79736	-1.3574	24.80743	121.0242	58.55135	0.0486145	0.202271	58.5513	-57	6.5
21:08:06:37	0	0.75109	-0.0018757	0.0079247	-0.66015	0.011818	0.00142	-0.0037003	-0.760977	0.540178	-82.63	0.70752	0.75244	-1.2686	24.80743	121.0242	58.55968	0.0422668	0.206299	58.5597	-58	6.25
21:08:06:68	0	0.75101	-0.0015415	0.0075718	-0.66024	0.013931	0.014084	0.0072899	-0.705585	0.535003	-82.6434	0.060486	0.64307	0.17944	24.80743	121.0242	58.5598	0.0358276	0.205566	58.5598	-57	6.5
21:08:07:00	0	0.75104	-0.0013591	0.0079121	-0.66021	0.054962	-0.0003047	0.0046997	-0.715613	0.578124	-82.6384	-0.15076	0.52197	1.5996	24.80743	121.0242	58.53785	0.0274506	0.189575	58.5378	-58	6.25
21:08:07:31	0	0.75102	-0.0016264	0.0075883	-0.66023	-0.033539	0.010811	-0.003315	-0.714125	0.530008	-82.6416	1.4736	0.47192	-0.81787	24.80743	121.0242	58.5418	0.0340881	0.188477	58.5418	-58	6
21:08:07:62	0	0.751	-0.0012051	0.0076672	-0.66026	0.026962	0.043091	0.0032578	-0.683855	0.568663	-82.6453	0.14709	0.58203	-0.21106	24.80743	121.0242	58.54496	0.0265961	0.18689	58.545	-58	6.25
21:08:07:93	0	0.75101	-0.0011059	0.0080684	-0.66024	-0.013275	-0.0082397	-0.0018473	-0.705672	0.610708	-82.6431	-1.0693	-0.67627	-0.48657	24.80743	121.0242	58.52646	0.0121307	0.16272	58.5265	-58	6.75
21:08:08:24	0	0.75097	-0.00085961	0.0083015	-0.66028	0.029449	0.026352	0.004406	-0.702154	0.649361	-82.6503	-0.086487	0.54736	-0.26685	24.80743	121.0242	58.49169	0.0119095	0.162109	58.4917	-57	6
21:08:08:55	0	0.751	-0.0011197	0.0081859	-0.66025	0.018875	-0.017334	0.0023746	-0.715752	0.61976	-82.6454	-0.021118	0.51514	-0.73291	24.80743	121.0242	58.49834	0.00981903	0.163452	58.4983	-57	6
21:08:08:86	0	0.75097	-0.00079379	0.0079394	-0.66029	0.033356	0.035736	0.0042725	-0.669082	0.623173	-82.6503	0.35181	0.42627	-0.43774	24.80743	121.0242	58.49525	0.0115356	0.154663	58.4952	-58	6.25
21:08:09:17	0	0.75094	-0.00099664	0.0077811	-0.66032	-0.058563	-0.0070686	0.0015326	-0.67459	0.594174	-82.6554	0.095032	-1.041	1.2549	24.80743	121.0242	58.50178	0.00240517	0.133057	58.5018	-58	6.25
21:08:09:48	0	0.75092	-0.0011338	0.0080803	-0.66034	0.025497	-0.016754	0.0054703	-0.709056	0.609525	-82.6592	-0.079773	-0.49927	0.75732	24.80743	121.0242	58.47284	0.00390625	0.121826	58.4728	-58	6
21:08:09:80	0	0.75092	-0.00071392	0.0078748	-0.66034	0.031525	-0.00040483	0.0046921	-0.657371	0.623613	-82.6588	-0.55518	0.45996	1.543	24.80743	121.0242	58.47927	-0.00112343	0.129883	58.4793	-58	6
21:08:10:11	0	0.75091	-0.00088359	0.0080009	-0.66035	0.013206	0.00025272	0.0040779	-0.681521	0.621614	-82.6604	1.6387	1.085	-1.1084	24.80743	121.0242	58.47051	0.00350189	0.130371	58.4705	-58	7
21:08:10:42	0	0.75088	-0.0006962	0.0079987	-0.66039	0.011612	0.017975	0.011955	-0.665264	0.635575	-82.6661	0.044922	1.0332	0.38037	24.80743	121.0242	58.46745	-0.00873566	0.131592	58.4674	-58	6
21:08:10:73	0	0.75087	-0.00063933	0.0072687	-0.66041	-0.054901	-0.0033417	0.000875	-0.605128	0.577053	-82.6677	0.13049	-0.28564	0.93262	24.80743	121.0242	58.42791	-0.0152359	0.125854	58.4279	-58	6.25
21:08:11:04	0	0.75082	-0.0008284	0.007162	-0.66046	0.0098877	0.016342	-0.0049438	-0.613356	0.553513	-82.676	-0.77148	0.11658	-0.21667	24.80743	121.0242	58.43019	-0.0171509	0.125732	58.4302	-57	6.5
21:08:11:35	0	0.75082	-0.00047489	0.0072274	-0.66047	0.0086365	0.010239	-0.00048757	-0.587897	0.585897	-82.6767	0.60352	0.48218	1.9111	24.80743	121.0242	58.43654	-0.0146103	0.129028	58.4365	-58	6.25
21:08:11:66	0	0.75074	-0.00067049	0.0073899	-0.66055	-0.0095367	0.014778	-0.014069	-0.617092	0.584999	-82.6901	-0.79834	-0.54541	0.025055	24.80743	121.0242	58.44553	-0.0201569	0.118958	58.4455	-58	5.75
21:08:11:97	0	0.75077	-0.00055052	0.0075016	-0.66053	0.024811	0.0112	-0.009964	-0.615213	0.603719	-82.686	-0.15698	-0.27075	1.5957	24.80743	121.0242	58.41854	-0.024704	0.111023	58.4185	-64	6
21:08:12:28	0	0.75064	-0.00071088	0.0070333	-0.66067	0.021515	-0.012306	0.012177	-0.593657	0.551177	-82.7072	0.78271	0.11212	0.58984	24.80743	121.0242	58.41318	-0.0202637	0.108154	58.4132	-57	6.5
21:08:12:59	0	0.75067	-0.0005449	0.0070328	-0.66064	0.014366	0.00034595	0.0056725	-0.579319	0.563729	-82.7021	0.5752	0.46899	2.0781	24.80743	121.0242	58.41565	-0.0212097	0.110962	58.4156	-58	6.25
21:08:12:91	0	0.75068	-0.00049707	0.0068158	-0.66063	-0.024582	0.0078354	0.01181	-0.558765	0.548681	-82.7011	0.29663	0.7334	-0.0065765	24.80743	121.0242	58.42743	-0.028183	0.108826	58.4274	-58	6
21:08:13:21	0	0.75062	-0.00040728	0.0064751	-0.6607	0.0401	-0.013351	-0.0058784	-0.525302	0.526129	-82.7116	-0.97021	-0.061005	-0.23792	24.80743	121.0242	58.40197	-0.0391235	0.0955811	58.402	-58	6.25
21:08:13:53	0	0.75063	-0.00010311	0.0062757	-0.66069	-0.017426	-0.015793	0.015884	-0.484025	0.532008	-82.7096	-0.23987	0.20325	0.24304	24.80743	121.0242	58.41269	-0.0299988	0.0958252	58.4127	-58	6
21:08:13:83	0	0.7506	-0.00039404	0.0063344	-0.66073	-0.030151	0.02153	-0.018875	-0.513519	0.515006	-82.7151	-0.97461	-0.36548	-0.28931	24.80743	121.0242	58.42366	-0.0379944	0.0927734	58.4237	-59	6.25
21:08:14:15	0	0.75055	-7.54E-05	0.0063406	-0.66078	0.062286	0.010292	-0.0047226	-0.48663	0.539634	-82.7237	-0.81299	0.033081	1.0723	24.80743	121.0242	58.41914	-0.0410461	0.0924072	58.4191	-58	5.75
21:08:14:46	0	0.75057	-0.00044461	0.006135	-0.66076	0.0070343	-0.014542	0.015175	-0.502792	0.494009	-82.7197	0.79004	0.36353	0.64307	24.80743	121.0242	58.37878	-0.0295105	0.0829468	58.3788	-58	6
21:08:14:77	0	0.75061	-0.00014818	0.006067	-0.66072	0.018463	0.0034027	0.00067806	-0.472122	0.510634	-82.7136	-1.0957	0.47852	1.1348	24.80743	121.0242	58.362	-0.0408936	0.0859985	58.362	-58	6.5
21:08:15:08	0	0.75054	-0.00031196	0.0060468	-0.6608	-0.005352	0.0015812	-0.0050888	-0.484731	0.496442	-82.7258	-0.76172	-0.46045	0.73926	24.80743	121.0242	58.35567	-0.0440979	0.079895	58.3557	-59	6
21:08:15:39	0	0.75061	-0.00023118	0.0056263	-0.66073	0.018661	0.0022583	-0.0047302	-0.445893	0.466438	-82.7141	-1.5195	0.42969	0.49121	24.80743	121.0242	58.36074	-0.0500793	0.0881958	58.3607	-68	4.5
21:08:15:70	0	0.75041	-0.00056307	0.0054787	-0.66094	0.034271	0.0080032	-0.013016	-0.463386	0.428476	-82.7472	-0.7583	-0.54199	-0.047119	24.80743	121.0242	58.31709	-0.0481873	0.0710449	58.3171	-58	6.25
21:08:16:01	0	0.7504	-0.00018106	0.0050882	-0.66097	0.048553	-0.007679	0.0024471	-0.400971	0.423825	-82.7498	0.479	0.77783	-0.35938	24.80743	121.0242	58.30631	-0.0420837	0.0753174	58.3063	-58	6.25
21:08:16:32	0	0.75031	-7.86E-05	0.0053893	-0.66107	-0.040771	-0.018158	0.014893	-0.415035	0.457413	-82.7661	-0.12195	-0.77588	1.3369	24.80743	121.0242	58.30936	-0.0534973	0.0662231	58.3094	-58	5.75
21:08:16:64	0	0.7502	-0.00010035	0.0058391	-0.66119	0.022964	0.012703	-0.0064278	-0.451061	0.494371	-82.7852	-0.56299	-0.019989	1.3428	24.80743	121.0242	58.29779	-0.0493774	0.0705566	58.2978	-57	6.25
21:08:16:95	0	0.75015	-2.48E-05	0.006137	-0.66124	0.043518	0.020447	0.009964	-0.467175	0.52567	-82.7926	0.89551	0.15503	-0.42236	24.80743	121.0242	58.29309	-0.0402527	0.0686646	58.2931	-58	6.75
21:08:17:26	0	0.75017	0.00024872	0.0051544	-0.66122	0.041779	-0.011353	0.0021877	-0.369181	0.461939	-82.7887	0.12415	0.76221	-0.8418	24.80743	121.0242	58.24499	-0.0527649	0.0645752	58.245	-58	6.25
21:08:17:57	0	0.75007	-0.00013163	0.0045324	-0.66135	0.049011	0.037811	0.0078278	-0.35481	0.379593	-82.8073	-0.3313	0.72998	0.074707	24.80743	121.0242	58.22617	-0.0612488	0.0734863	58.2262	-57	6.5
21:08:17:88	0	0.75005	-0.00039554	0.0045395	-0.66137	0.00088596	0.016479	-0.0028133	-0.37804	0.360186	-82.8112	0.15027	0.47461	1.9824	24.80743	121.0242	58.20729	-0.0394287	0.0571594	58.2073	-58	6.25
21:08:18:19	0	0.74993	-0.00025986	0.0080233	-0.66147	0.0080643	0.024155	-0.0014963	-0.630542	0.669805	-82.831	-0.50049	-0.20605	0.32056	24.80743	121.0242	58.18951	-0.0346985	0.0359192	58.1895	-57	6.25
21:08:18:50	0	0.74997	0.000508	0.011415	-0.66137	-0.036407	0.026138	-0.0014324	-0.821651	1.0196	-82.8233	0.30884	-0.26563	-1.0684	24.80743	121.0242	58.14682	-0.0334167	0.0372009	58.1468	-58	5.75
21:08:18:81	0	0.75	0.00032174	0.012971	-0.66132	0.038147	-0.01738	0.0046387	-0.955527	1.13921	-82.8186	0.16858	0.68262	-0.64893	24.80743	121.0242	58.13565	-0.0535278	0.0511475	58.1356	-58	6
21:08:19:12	0	0.74991	0.00028195	0.012634	-0.66142	0.023392	0.011261	0.010231	-0.933556	1.10712	-82.8333	-0.089844	0.62842	0.4292	24.80743	121.0242	58.12425	-0.0566711	0.0559692	58.1242	-58	6.75
21:08:19:44	0	0.74994	0.00017269	0.01088	-0.66142	0.0044708	-0.0023518	-0.0012865	-0.809949	0.948155	-82.8286	0.49805	-0.084229	1.7061	24.80743	121.0242	58.11961	-0.0657959	0.0560303	58.1196	-58	6.25
21:08:19:75	0	0.7499	-3.02E-05	0.0092709	-0.66149	-0.043427	0.0087585	-0.0084305	-0.705424	0.794403	-82.836	0.44165	-0.25488	-0.3064	24.80743	121.0242	58.06614	-0.0461731	0.0441284	58.0661	-58	6.25
21:08:20:06	0	0.74981	0.00058708	0.010544	-0.66157	0.029236	0.043457	0.0064735	-0.749024	0.950517	-82.8507	0.90234	0.21387	-0.12769	24.80743	121.0242	58.05844	-0.0429688	0.0383911	58.0584	-58	5.75
21:08:20:37	0	0.74977	0.00049833	0.01214	-0.66159	-9.98E-05	-0.017548	0.0081863	-0.877747	1.08088	-82.8586	-0.39087	0.11639	-0.33472	24.80743	121.0242	58.04915	-0.0575562	0.0345764	58.0491	-58	6.25
21:08:20:68	0	0.74975	0.000671	0.012063	-0.66162	0.016602	0.034332	0.0028229	-0.857088	1.08731	-82.8619	-0.080444	0.41187	-0.41113	24.80743	121.0242	58.03617	-0.0588989	0.0440674	58.0362	-58	6.5
21:08:20:99	0	0.74964	0.00043726	0.011736	-0.66174	0.017365	-0.022766	0.0076942	-0.852537	1.04136	-82.8798	-0.72021	-0.11493	-0.24353	24.80743	121.0242	57.98798	-0.065979	0.0328369	57.988	-58	6
21:08:21:30	0	0.74962	0.00052569	0.011821	-0.66177	0.0078011	0.01519	0.010857	-0.851428	1.05533	-82.8847	0.027527	0.76514	0.18823	24.80743	121.0242	57.9709	-0.0585938	0.0361023	57.9709	-57	6
21:08:21:61	0	0.74961	0.00052077	0.012471	-0.66176	-0.014198	0.020889	-0.0014038	-0.901186	1.11083	-82.8849	-0.0014029	0.26318	1.6758	24.80743	121.0242	57.97163	-0.0591431	0.0306549	57.9716	-59	6
21:08:21:92	0	0.74962	0.00018685	0.01257	-0.66175	0.025116	-0.013756	0.0086365	-0.93733	1.09397	-82.8839	0.96436	0.85254	-1.043	24.80743	121.0242	57.95893	-0.059021	0.034729	57.9589	-59	6
21:08:22:23	0	0.74946	0.00064202	0.012591	-0.66193	0.01059	0.019043	0.0042725	-0.900144	1.13012	-82.9121	-0.050507	0.41992	-0.40283	24.80743	121.0242	57.90836	-0.0644531	0.0315247	57.9084	-58	6.25
21:08:22:55	0	0.74941	0.00053328	0.012411	-0.66199	-0.016357	0.0039368	-0.0058365	-0.895848	1.10629	-82.9197	0.18811	-0.27808	1.7168	24.80743	121.0242	57.90345	-0.0712891	0.0323792	57.9035	-58	6.25
21:08:22:85	0	0.74928	0.00037077	0.011923	-0.66214	0.034973	-0.0054741	-0.0053902	-0.872979	1.05188	-82.9419	-0.13245	-0.73535	0.19116	24.80743	121.0242	57.89645	-0.0664673	0.0200958	57.8965	-58	6.25
21:08:23:17	0	0.74928	0.00069102	0.012012	-0.66215	-0.034088	-0.011543	0.006279	-0.852305	1.08388	-82.9433	0.20117	-0.74854	0.65234	24.80743	121.0242	57.88627	-0.0689697	0.0152054	57.8863	-59	5.75
21:08:23:48	0	0.74926	0.00050914	0.01235	-0.66216	0.016739	-0.0064926	0.010986	-0.893557	1.09903	-82.9462	0.1925	0.1217	0.95557	24.80743	121.0242	57.84323	-0.0599976	0.0139008	57.8432	-58	5.5
21:08:23:79	0	0.74931	0.00088887	0.012495	-0.6621	0.0056801	0.0097656	-0.0061569	-0.871902	1.14042	-82.9365	0.20264	-0.68018	-1.3623	24.80743	121.0242	57.838	-0.0592651	0.0120773	57.838	-58	6
21:08:24:10	0	0.7493	0.00055459	0.012282	-0.66212	-0.034424	-0.022476	0.0073853	-0.884447	1.0967	-82.9398	-0.30322	-0.74365	0.17004	24.80743	121.0242	57.83107	-0.0640259	0.00754547	57.8311	-58	7.25
21:08:24:41	0	0.74928	0.00064532	0.012238	-0.66214	0.00062037	0.030716	-0.0012407	-0.873348	1.09979	-82.9428	-0.2373	0.5542	-0.26904	24.80743	121.0242	57.83915	-0.0617371	0.0126114	57.8392	-58	5.75
21:08:24:72	0	0.74926	0.0006468	0.012504	-0.66216	-0.042084	0.0041389	-0.0050049	-0.893488	1.12277	-82.9462	-0.29346	-0.66113	-0.030136	24.80743	121.0242	57.80099	-0.0598145	0.00257111	57.801	-58	6.25
21:08:25:03	0	0.74918	0.00042185	0.012729	-0.66225	-0.0017138	0.0096664	-0.011864	-0.929996	1.12488	-82.9603	-0.64697	-0.38354	0.11145	24.80743	121.0242	57.80505	-0.0606689	0.00173187	57.805	-59	6.25
21:08:25:34	0	0.74917	0.00085321	0.012909	-0.66225	-0.036072	0.0047989	0.0036469	-0.906582	1.17302	-82.9606	-0.098022	-0.043854	-0.97217	24.80743	121.0242	57.80237	-0.0573425	0.00407028	57.8024	-58	6.25
21:08:25:66	0	0.74909	0.00054518	0.012814	-0.66234	-0.043335	0.0033932	-0.004406	-0.92601	1.14142	-82.9753	0.63721	0.31836	-0.729	24.80743	121.0242	57.80482	-0.0559998	0.00324631	57.8048	-58	5.75
21:08:25:96	0	0.74908	0.00096785	0.012776	-0.66235	-0.021057	-0.0032501	0.0033054	-0.886874	1.17025	-82.9766	-1.0234	0.2417	-0.33008	24.80743	121.0242	57.76622	-0.0576477	0.00139999	57.7662	-58	6
21:08:26:28	0	0.74896	0.00055484	0.012815	-0.66249	0.029861	0.0017929	0.001152	-0.925428	1.142	-82.9975	-0.21924	-0.31958	0.64063	24.80743	121.0242	57.7807	-0.0577393	-0.00527191	57.7807	-58	6.25
21:08:26:59	0	0.74892	0.00088219	0.012193	-0.66255	-0.047699	-0.017456	0.008728	-0.85018	1.11343	-83.0045	0.1012	-0.70654	1	24.80743	121.0242	57.77723	-0.062439	-0.0109711	57.7772	-58	6
21:08:26:90	0	0.74896	0.00074123	0.012147	-0.6625	0.044922	0.032227	-0.0002054	-0.858744	1.09886	-82.9977	0.41528	-0.36646	-0.66504	24.80743	121.0242	57.78384	-0.0496521	-0.0104446	57.7838	-58	6.25
21:08:27:21	0	0.74887	0.00069009	0.012243	-0.6626	-0.033844	0.010933	-0.014557	-0.870563	1.10308	-83.0132	-0.7334	-0.72461	0.36865	24.80743	121.0242	57.73728	-0.0568848	-0.0172882	57.7373	-58	6
21:08:27:52	0	0.74876	0.00023103	0.012315	-0.66273	0.054443	0.017212	-0.026154	-0.915622	1.07426	-83.0327	-1.9502	-0.49292	-1.6943	24.80743	121.0242	57.74469	-0.0666504	-0.0187531	57.7447	-58	6
21:08:27:83	0	0.7488	0.00066246	0.01178	-0.66269	-0.068237	-0.0031872	-0.0081635	-0.837887	1.06117	-83.0254	0.20459	0.31763	-0.104	24.80743	121.0242	57.75687	-0.0484314	-0.0207672	57.7569	-58	5.75
21:08:28:14	0	0.74878	0.00058708	0.0123	-0.6627	-0.017151	0.030518	-0.024414	-0.883875	1.10003	-83.0287	-1.5986	-0.74609	-0.12988	24.80743	121.0242	57.76075	-0.0602112	-0.0273743	57.7607	-57	6
21:08:28:46	0	0.74864	0.00081145	0.012208	-0.66286	0.0047455	-0.0011015	-0.0030766	-0.857858	1.10898	-83.0531	0.059357	-0.72363	-0.75293	24.80743	121.0242	57.73066	-0.0494995	-0.0306702	57.7307	-58	6.25
21:08:28:76	0	0.74866	0.00062087	0.012098	-0.66285	0.037262	0.0083466	0.0039005	-0.865856	1.08512	-83.0504	-0.28076	0.38452	1.4102	24.80743	121.0242	57.73227	-0.0535583	-0.0266724	57.7323	-58	6.25
21:08:29:08	0	0.74853	0.00099591	0.012544	-0.66298	0.056519	0.0080032	0.013161	-0.867796	1.15173	-83.0717	0.97754	-0.49219	0.51514	24.80743	121.0242	57.72742	-0.0427856	-0.0349121	57.7274	-59	6.5
21:08:29:39	0	0.7485	0.00034167	0.012179	-0.66302	-0.027954	0.0087891	-0.026917	-0.896199	1.07063	-83.0773	1.0332	-1.2383	-1.1836	24.80743	121.0242	57.7282	-0.0496826	-0.0379028	57.7282	-59	6
21:08:29:70	0	0.74857	0.00084232	0.011619	-0.66295	0.11047	0.037292	0.028244	-0.810566	1.0607	-83.065	-0.61914	0.48975	1.2334	24.80743	121.0242	57.73299	-0.0594177	-0.0276947	57.733	-59	6.25
21:08:30:01	0	0.74858	-0.0011603	0.0098946	-0.66297	0.097412	-0.023026	-0.0012989	-0.851337	0.760646	-83.0643	1.0557	0.034821	-2.8965	24.80743	121.0242	57.69029	-0.148193	-0.104309	57.6903	-58	6
21:08:30:32	0	0.74821	-0.0035423	0.0053514	-0.66343	-0.0023155	-0.02121	0.0087738	-0.710572	0.189521	-83.1277	4.7305	-1.1641	1.8779	24.80743	121.0242	57.68427	-0.341309	-0.307129	57.6843	-60	5.75
21:08:30:63	0	0.74336	-0.0049472	-0.0027933	-0.66887	-0.012062	-0.11255	-0.028992	-0.20733	-0.617139	-83.9596	4.3789	-1.2734	2.0078	24.80743	121.0242	57.67884	-0.639648	-0.562988	57.6788	-67	5.25
21:08:30:94	0	0.72834	-0.0069994	-0.0029871	-0.68518	-0.028183	0.098877	-0.18018	-0.34968	-0.79889	-86.4998	-0.92041	-1.8271	0.9165	24.80742	121.0242	57.67958	-0.998047	-0.961914	57.6796	-65	5.75
21:08:31:25	0	0.70121	-0.0049231	0.017429	-0.71272	-0.062561	0.12146	-0.21692	-1.81959	0.998403	-90.9487	0.64648	-1.4561	0.54736	24.80742	121.0242	57.64345	-1.38477	-1.28223	57.6435	-65	6
21:08:31:57	0	0.69562	-0.008961	0.032268	-0.71763	-0.18005	-0.077942	0.16675	-3.37154	1.83561	-91.8383	-1.6611	-2.748	0.074524	24.80742	121.0242	57.64991	-1.96875	-1.46777	57.6499	-65	5.75
21:08:31:87	0	0.70584	-0.0028963	0.031616	-0.70766	-0.36743	-0.01297	0.060791	-2.80143	2.32297	-90.2036	1.2686	-1.6533	-1.5879	24.80741	121.0242	57.66114	-2.13477	-1.92871	57.6611	-60	6
21:08:32:19	0	0.71392	0.0042062	0.043287	-0.69887	0.10321	-0.11481	0.1488	-3.1313	3.88114	-88.8853	-1.0225	0.3855	-1.752	24.8074	121.0242	57.66743	-2.48633	-2.11328	57.6674	-66	5.25
21:08:32:50	0	0.73196	0.0050645	0.05255	-0.6793	0.25684	0.1405	0.077942	-3.68128	4.80757	-85.8807	-2.8223	1.4434	-2.5195	24.8074	121.0242	57.64465	-2.51953	-2.51172	57.6446	-71	3
21:08:32:81	0	0.75188	-0.0013646	0.053417	-0.65713	0.26563	-0.054047	0.18372	-4.15647	4.50424	-82.4699	-2.6172	0.53564	-0.62402	24.80739	121.0242	57.65544	-2.5	-2.68164	57.6554	-67	5.25
21:08:33:12	0	0.77153	0.0047312	0.052842	-0.63398	0.25732	0.10419	0.19507	-3.43582	5.02192	-78.9716	-0.36914	0.64941	-1.1201	24.80738	121.0242	57.68773	-2.45898	-2.98828	57.6877	-69	4.75
21:08:33:43	0	0.78562	0.0021671	0.052176	-0.6165	-0.20508	-0.059631	0.11816	-3.50571	4.85612	-76.3933	0.63623	0.042603	0.41064	24.80737	121.0242	57.69465	-2.24805	-3.15039	57.6946	-63	6
21:08:33:74	0	0.80141	-0.0018776	0.05145	-0.59589	-0.23352	-0.22168	0.1969	-3.70014	4.60164	-73.4143	-0.040466	-2.0059	0.3772	24.80735	121.0242	57.66719	-2.21484	-3.38477	57.6672	-66	5.5
21:08:34:05	0	0.81886	-0.000444	0.040785	-0.57254	-0.032684	-0.18909	0.12585	-2.72453	3.80075	-70.0119	0.85498	-1.0137	-1.1475	24.80734	121.0242	57.69127	-2.13867	-3.66016	57.6913	-60	6.5
21:08:34:36	0	0.82665	-0.0010203	0.047726	-0.56069	-0.063721	0.014099	0.13269	-3.17426	4.45988	-68.4188	-0.4104	-0.94092	-0.0070381	24.8076	-39.6471	57.6894	-1.91406	-3.6875	57.6894	-76	-2.75
21:08:34:67	0	0.84221	0.0010529	0.043971	-0.53736	-0.018723	-0.01088	0.23145	-2.61427	4.31255	-65.1767	0.86621	0.44678	-1.4111	24.80732	121.0242	57.71806	-1.73535	-3.63672	57.7181	-67	5.5
21:08:34:99	0	0.85345	0.000269	0.033014	-0.52014	0.35742	0.37573	0.032471	-1.94494	3.24649	-62.7758	-2.1875	-1.6934	-0.48389	24.80731	121.0242	57.68537	-1.52539	-3.79492	57.6854	-58	6
21:08:35:30	0	0.85474	0.0089854	0.036526	-0.51769	0.33179	0.32275	0.044891	-1.29017	4.11416	-62.4498	-0.21326	2.6602	-2.2617	24.8073	121.0242	57.69947	-1.37012	-3.68945	57.6995	-71	3
21:08:35:61	0	0.86041	0.0076298	0.043907	-0.50765	0.000772	0.001132	0.10486	-1.80847	4.77837	-61.1576	-0.32153	0.43091	-0.55859	24.80729	121.0242	57.71478	-1.25879	-3.61133	57.7148	-65	5.25
21:08:35:92	0	0.87449	-0.0027991	0.036024	-0.4837	-0.2384	-0.13721	0.21875	-2.282	3.45688	-57.965	1.7402	-0.61523	-0.52686	24.80727	121.0242	57.73824	-1.10742	-3.56445	57.7382	-66	5.5
21:08:36:23	0	0.8833	0.0044984	0.023662	-0.4682	-0.081665	-0.033997	0.045685	-0.815061	2.63729	-55.871	2.7578	1.418	-1.5088	24.80726	121.0242	57.70942	-0.918945	-3.54688	57.7094	-62	5.75
21:08:36:54	0	0.88536	0.0051739	0.02945	-0.46394	0.24353	-0.043427	0.063843	-1.04251	3.26467	-55.34	-0.2041	1.1123	-0.8833	24.80725	121.0242	57.71584	-0.89502	-3.48828	57.7158	-61	6.25
21:08:36:85	0	0.89165	0.0057518	0.03281	-0.4515	-0.18738	-0.32715	0.10065	-1.11219	3.65245	-53.748	0.95654	3.0215	1.8828	24.80724	121.0242	57.75185	-0.709473	-3.29688	57.7519	-56	6.5
21:08:37:16	0	0.90358	-0.0054804	0.018965	-0.42797	0.10028	-0.030396	0.16895	-1.49834	1.69512	-50.7101	-0.087036	-1.7871	-0.47852	24.80723	121.0242	57.75278	-0.64502	-3.3418	57.7528	-57	6.5
21:08:37:48	0	0.90541	0.011503	0.0055626	-0.42436	-0.11365	-0.12842	-0.033264	0.923227	1.13659	-50.2151	1.8193	1.124	0.48218	24.80722	121.0242	57.73839	-0.487549	-3.21094	57.7384	-52	6.75
21:08:37:78	0	0.90078	0.010444	0.0064262	-0.43411	0.024597	-0.05719	-0.072388	0.758583	1.18296	-51.4539	-0.94824	-0.56055	0.15405	24.80721	121.0242	57.7434	-0.53418	-3.16602	57.7434	-53	6.25
21:08:38:10	0	0.89704	0.014951	0.004335	-0.44168	0.17786	0.11469	-0.079285	1.3179	1.20242	-52.4149	-0.14661	0.16589	-0.50781	24.80721	121.0242	57.74368	-0.53125	-3.14648	57.7437	-50	6
21:08:38:41	0	0.89047	0.0082899	0.0096566	-0.45487	-0.099915	0.044312	-0.075256	0.342662	1.41761	-54.1137	1.9238	0.9541	-0.092773	24.8072	121.0242	57.74101	-0.519043	-3.01953	57.741	-52	6.25
21:08:38:72	0	0.88571	0.0067942	0.017826	-0.46384	-0.28247	-0.062622	-0.026947	-0.258123	2.17093	-55.2868	0.45923	-1.2598	0.83398	24.80719	121.0242	57.6834	-0.534668	-2.94336	57.6834	-48	6
21:08:39:03	0	0.88426	0.0083545	0.034563	-0.46564	0.0022202	0.13794	-0.0060539	-1.00012	3.95113	-55.5765	-1.1641	-1.8789	-0.96387	24.80718	121.0242	57.6746	-0.508789	-2.97852	57.6746	-49	6
21:08:39:34	0	0.88935	0.0054449	0.051628	-0.45426	-0.060608	0.036224	0.22717	-2.14311	5.55363	-54.2177	0.25854	-0.80176	-0.89502	24.80717	121.0242	57.64423	-0.479004	-2.91211	57.6442	-47	6.25
21:08:39:65	0	0.9034	0.0059275	0.061486	-0.42432	-0.078491	-0.039246	0.22766	-2.39291	6.66838	-50.4579	-0.65576	4.043	1.5146	24.80717	121.0242	57.62849	-0.271973	-2.82617	57.6285	-46	6.5
21:08:39:96	0	0.92102	-0.010517	0.066072	-0.38373	0.10651	0.10449	0.33447	-4.04484	6.52487	-45.4679	-1.1006	-1.002	0.24744	24.80716	121.0242	57.55053	-0.0895386	-2.8457	57.5505	-46	6.75
21:08:40:27	0	0.94448	-0.021208	0.049226	-0.32418	-0.37329	-0.33984	0.4353	-4.14057	4.5446	-38.0524	2.8281	1.584	-0.27197	24.80715	121.0242	57.52773	0.164063	-2.60938	57.5277	-43	6
21:08:40:58	0	0.9606	-0.023547	0.041532	-0.2738	0.14954	-0.054199	0.29199	-3.90677	3.83577	-31.9489	1.0459	-0.84912	0.71045	24.80714	121.0242	57.49008	0.435059	-2.46094	57.4901	-44	6.5
21:08:40:89	0	0.97204	-0.018656	0.043964	-0.22989	-0.20117	-0.097107	0.33203	-3.24751	4.41001	-26.7369	-1.1816	0.66162	-2.0352	24.80714	121.0242	57.48309	0.512695	-1.94727	57.4831	-44	6
21:08:41:21	0	0.98429	-0.014799	0.030218	-0.17333	0.11261	-0.080444	0.43652	-2.27339	3.11589	-20.0363	-0.6792	0.24524	-0.026413	24.80713	121.0242	57.4385	0.515137	-1.7334	57.4385	-52	6
21:08:41:51	0	0.9934	-0.0040065	0.013709	-0.11384	0.15051	0.036377	0.36206	-0.635154	1.50852	-13.0829	0.61719	1.2803	0.85352	24.80713	121.0242	57.4099	0.663086	-1.5166	57.4099	-42	5.75
21:08:41:83	0	0.99751	0.0056985	0.00084975	-0.070331	-0.032715	-0.013527	0.21497	0.64454	0.14306	-8.0653	-1.918	1.126	0.00025749	24.80713	121.0242	57.38237	0.558105	-1.05078	57.3824	-40	6.25
21:08:42:14	0	0.99864	0.0068084	-0.0017763	-0.05161	-0.057159	0.080261	0.062866	0.78966	-0.163	-5.9179	-1.0039	-0.29126	-0.27417	24.80713	121.0242	57.3466	0.463623	-0.596191	57.3466	-40	6.5
21:08:42:45	0	0.99862	0.00097981	0.0037099	-0.052414	0.025848	0.027985	0.017303	0.089843	0.43043	-6.0086	-1.3203	1.5518	-0.70801	24.80713	121.0242	57.31926	0.279297	-0.425293	57.3193	-41	6.5
21:08:42:76	0	0.99866	0.0018514	0.003724	-0.051596	-0.0079117	-0.036285	0.032288	0.18986	0.43712	-5.9145	0.65625	0.72656	0.82324	24.80712	121.0242	57.26702	0.184204	-0.224609	57.267	-40	6.5
21:08:43:07	0	0.99867	-0.00027498	0.0038396	-0.051477	-0.075073	-0.040314	0.019638	-0.054119	0.43778	-5.9016	0.20691	0.99561	2.0469	24.80712	121.0242	57.25092	0.175903	-0.241699	57.2509	-39	6
21:08:43:38	0	0.99869	0.0024548	-0.0010976	-0.051195	0.061249	-0.076416	0.025726	0.28736	-0.11121	-5.8693	0.87646	1.71	1.2686	24.80712	121.0242	57.23471	0.146973	-0.261719	57.2347	-40	7
21:08:43:69	0	0.99868	0.0030089	-0.003208	-0.051261	-0.022873	-0.011627	0.0026932	0.36319	-0.34945	-5.8778	1.6826	0.082581	0.29126	24.80712	121.0242	57.23859	0.175903	-0.228027	57.2386	-39	6
21:08:44:00	0	0.99872	0.0026262	-0.0021261	-0.050458	-0.0007782	0.042572	-0.013626	0.31285	-0.22814	-5.7851	-0.11761	-0.91699	-0.93945	24.80712	121.0242	57.20066	0.13916	-0.203491	57.2007	-39	6
21:08:44:32	0	0.99873	0.00055358	-0.00034807	-0.05043	0.017578	0.0046692	0.016769	0.065366	-0.036636	-5.7813	-0.83594	1.0586	0.74756	24.80712	121.0242	57.191	0.133789	-0.183594	57.191	-39	5.75
21:08:44:63	0	0.99874	0.00071789	0.00047787	-0.050187	-0.014236	0.014595	-0.0071297	0.079412	0.058819	-5.7534	0.14624	-0.68115	-1.0693	24.80712	121.0242	57.18256	0.101685	-0.187622	57.1826	-38	6
21:08:44:94	0	0.99873	0.0023305	-0.0014874	-0.05038	0.0051765	-0.0062904	0.007103	0.2753	-0.15677	-5.7759	0.15906	0.27905	0.051483	24.80712	121.0242	57.17455	0.0750122	-0.17334	57.1746	-39	6.25
21:08:45:25	0	0.99873	0.0026078	-0.0027937	-0.050188	0.027054	-0.0016394	0.0024548	0.31453	-0.30473	-5.7544	0.015213	0.0020847	0.092102	24.80712	121.0242	57.13174	0.0759888	-0.145264	57.1317	-38	6
21:08:45:56	0	0.99874	0.0025074	-0.0030879	-0.050075	-0.007328	0.005661	0.00045896	0.30469	-0.33902	-5.7415	0.062866	-0.084473	-0.0039043	24.80712	121.0242	57.10991	0.0761108	-0.149658	57.1099	-39	6.25
21:08:45:87	0	0.99875	0.0028313	-0.0037399	-0.049856	-0.014122	-0.013535	0.0024986	0.34541	-0.41185	-5.7168	0.081299	0.086243	-0.020798	24.80712	121.0242	57.11296	0.0718994	-0.152222	57.113	-40	6.25
21:08:46:18	0	0.99875	0.0021578	-0.0024217	-0.049871	0.0011988	0.018997	0.0034275	0.2608	-0.26483	-5.7178	-0.018585	0.10236	0.019882	24.80712	121.0242	57.09984	0.0744629	-0.133057	57.0998	-40	5.75
21:08:46:49	0	0.99876	0.0012392	-0.0014984	-0.049731	0.011757	-0.0037918	0.0027008	0.15036	-0.16443	-5.7013	-0.04953	-0.066345	0.033203	24.80713	121.0242	57.05907	0.043396	-0.123108	57.0591	-40	6.75
21:08:46:80	0	0.99876	0.0012162	-0.0019246	-0.049784	-0.0064888	-0.0026512	0.0040855	0.15017	-0.21333	-5.7075	-0.023132	-0.053894	0.0098648	24.80713	121.0242	57.03875	0.0389709	-0.116821	57.0387	-39	6
21:08:47:12	0	0.99876	0.0023049	-0.0031013	-0.049712	0.0039978	-0.0063057	0.003746	0.28147	-0.34181	-5.6998	-0.043182	0.010223	-0.013504	24.80713	121.0242	57.05375	0.0250244	-0.117859	57.0538	-39	6
21:08:47:42	0	0.99874	0.0034321	-0.0056425	-0.049682	0.0034637	0.055481	9.63E-05	0.42495	-0.62624	-5.698	0.52539	0.087219	0.21802	24.80713	121.0242	57.05924	0.0509644	-0.109009	57.0592	-39	5.75
21:08:47:74	0	0.99874	0.0040134	-0.0052178	-0.04977	-0.017319	-0.018723	0.0031471	0.48911	-0.57428	-5.7082	0.037445	0.34302	0.098877	24.80713	121.0242	57.02595	0.00708389	-0.0916138	57.026	-39	5.5
21:08:48:05	0	0.99876	0.0013915	-0.0029114	-0.049622	0.013283	0.022247	-0.0025787	0.17582	-0.3253	-5.6892	-0.13733	-0.29517	0.64258	24.80713	121.0242	57.02087	0.0375977	-0.0825806	57.0209	-39	6
21:08:48:36	0	0.99874	0.002105	-0.0026978	-0.050108	0.027771	0.016266	0.00037074	0.25641	-0.29667	-5.745	-0.046936	-0.1521	0.17944	24.80713	121.0242	57.02586	0.00298309	-0.0916748	57.0259	-40	6
21:08:48:67	0	0.99878	0.0012097	-0.0014892	-0.04943	0.036652	0.046173	0.022812	0.14689	-0.16359	-5.6668	-0.69775	0.11511	-0.033142	24.80713	121.0242	57.01633	0.0236816	-0.0530396	57.0163	-40	6.25
21:08:48:98	0	0.99874	-0.0024278	0.003797	-0.050077	-0.051025	-0.046661	-0.0022221	-0.29965	0.42062	-5.742	0.090088	0.25415	0.0088425	24.80713	121.0242	56.97851	0.0397949	-0.0266571	56.9785	-39	6
21:08:49:29	0	0.99853	-0.011868	0.018225	-0.049659	-0.055725	0.10492	0.0075569	-1.4628	2.0182	-5.72	-0.41943	0.076477	0.048798	24.80713	121.0242	56.97204	0.0874023	-0.00868988	56.972	-40	5.75
21:08:49:60	0	0.99837	-0.015789	0.02322	-0.049695	0.025909	0.0025196	0.00087595	-1.9408	2.5674	-5.7427	-0.15564	-0.062744	0.025116	24.80713	121.0242	56.97564	0.00349808	-0.0592651	56.9756	-40	6.25
21:08:49:91	0	0.99823	-0.0189	0.026799	-0.049608	-0.0383	0.040527	-0.00038075	-2.318	2.9594	-5.75	0.079041	-0.011459	0.0078506	24.80713	121.0242	56.97752	0.0397034	-0.020813	56.9775	-40	5.75
21:08:50:23	0	0.99775	-0.026111	0.03676	-0.049713	-0.053894	0.097839	0.0019989	-3.2045	4.0575	-5.8184	0.18079	0.018951	-0.010178	24.80713	121.0242	56.95812	0.086792	0.0149307	56.9581	-41	6.5
21:08:50:54	0	0.99654	-0.037679	0.05465	-0.050093	-0.074707	0.12866	-0.0042915	-4.6473	6.0356	-6.0005	-0.016785	0.016937	-0.098694	24.80713	121.0242	56.96786	0.111511	0.0383606	56.9679	-41	6.75
21:08:50:85	0	0.99501	-0.051165	0.069754	-0.049712	-0.11127	0.065613	0.0022068	-6.3004	7.6849	-6.1439	0.038513	-0.20288	0.11249	24.80713	121.0242	56.96693	0.0654907	0.0422668	56.9669	-41	6
21:08:51:16	0	0.99367	-0.059152	0.081385	-0.049936	-0.012329	0.061432	-0.0030155	-7.31	8.9651	-6.3277	-0.55029	-0.15393	-0.23743	24.80713	121.0242	56.96975	0.0313416	-0.00137806	56.9697	-41	6.5
21:08:51:47	0	0.99321	-0.061518	0.085027	-0.050293	-0.027328	0.031128	-0.00057554	-7.6151	9.3643	-6.4222	-0.065796	0.00811	-0.01741	24.80713	121.0242	56.9353	0.0192566	0.0105209	56.9353	-42	6.5
21:08:51:78	0	0.99233	-0.065145	0.09181	-0.051116	-0.079041	0.075439	-0.0067787	-8.09783	10.1108	-6.61505	0.20105	0.39502	0.18079	24.80713	121.0242	56.92847	0.061615	0.0596313	56.9285	-41	6
21:08:52:09	0	0.99104	-0.07284	0.099488	-0.051441	0.020889	0.048859	0.0022449	-9.05994	10.9352	-6.81164	-0.11316	-0.46582	-0.0048904	24.80713	121.0242	56.93461	0.017746	0.00938416	56.9346	-41	6.25
21:08:52:40	0	0.9908	-0.074082	0.10081	-0.051632	-0.025375	-0.016968	0.0027561	-9.21823	11.0763	-6.86186	0.032959	-0.054016	0.022308	24.80713	121.0242	56.94331	-0.0101624	0.00737	56.9433	-39	-0.5
21:08:52:71	0	0.99068	-0.074833	0.10134	-0.051775	-0.0168	0.010788	-0.00026512	-9.31189	11.1307	-6.89272	0.05954	0.097717	-0.017258	24.80713	121.0242	56.91233	-0.00098896	0.0183411	56.9123	-42	6.5
21:08:53:02	0	0.99041	-0.07645	0.10268	-0.051912	-0.00088453	0.011238	-0.00032377	-9.51363	11.2709	-6.94165	-0.066101	-0.0080872	0.026337	24.80713	121.0242	56.92816	-0.00285912	0.0161743	56.9282	-42	6.75
21:08:53:33	0	0.99038	-0.076658	0.10288	-0.051879	0.0069923	0.0041504	-0.0010023	-9.53938	11.2935	-6.94253	0.0059853	-0.003418	0.014565	24.80713	121.0242	56.93028	-0.00646973	0.0138397	56.9303	-41	6.25
21:08:53:64	0	0.99018	-0.077963	0.10369	-0.052128	-0.015884	0.0097504	-0.0052872	-9.70136	11.3736	-6.99549	-0.056549	-0.0073814	-0.055908	24.80713	121.0242	56.93753	0.000468493	0.0317078	56.9375	-42	6.75
21:08:53:96	0	0.99002	-0.078904	0.10434	-0.052323	0.016464	0.02182	-0.0020161	-9.81936	11.4405	-7.03658	0.12311	-0.10693	0.080872	24.80713	121.0242	56.90271	0.00318909	0.0190735	56.9027	-39	-0.5
21:08:54:26	0	0.99008	-0.078547	0.10414	-0.052253	0.050995	-0.06897	-0.0039558	-9.77495	11.42	-7.02187	0.27979	-0.00058365	0.34033	24.80713	121.0242	56.90249	-0.0272217	0.00741196	56.9025	-42	7
21:08:54:58	0	0.98982	-0.079578	0.10576	-0.05237	0.00064373	0.0052567	-0.00088644	-9.91145	11.5974	-7.06623	0.050629	0.14453	-0.038483	24.80713	121.0242	56.91648	0.000314713	0.0296173	56.9165	-43	6
21:08:54:89	0	0.98965	-0.080286	0.10669	-0.052502	0.022308	0.007431	0.0038433	-10.0042	11.6969	-7.10084	-0.036469	0.055145	-0.10559	24.80713	121.0242	56.92245	-0.00723648	0.0231171	56.9225	-44	2.25
21:08:55:20	0	0.98962	-0.080893	0.10661	-0.05231	-0.004158	0.023666	0.0043221	-10.072	11.6861	-7.08485	-0.15112	-0.13647	0.054474	24.80713	121.0242	56.8947	-0.00380516	0.0340576	56.8947	-42	5
21:08:55:51	0	0.98969	-0.080674	0.10603	-0.052552	-0.0016136	0.0011873	-0.0033417	-10.0439	11.6181	-7.10348	0.06842	-0.066589	7.25E-05	24.80713	121.0242	56.91087	-0.00653458	0.0324097	56.9109	-43	5.25
21:08:55:82	0	0.98971	-0.080474	0.10605	-0.052483	-0.010719	0.0081787	-0.0019188	-10.0199	11.6231	-7.09333	0.0079117	0.016647	-0.036102	24.80713	121.0242	56.92481	-0.0024128	0.0405884	56.9248	-40	-0.5
21:08:56:13	0	0.98975	-0.079807	0.10608	-0.052666	0.017975	0.0035095	-0.001133	-9.9446	11.6288	-7.10704	0.034668	0.1626	-0.012268	24.80713	121.0242	56.92673	-0.00759888	0.036377	56.9267	-41	6.5
21:08:56:44	0	0.98973	-0.080582	0.10577	-0.052539	-0.00737	0.0052986	-0.0014191	-10.0305	11.5896	-7.09787	0.11853	-0.045898	0.033783	24.80713	121.0242	56.88292	-0.0022583	0.0447083	56.8829	-43	3.75
21:08:56:75	0	0.98974	-0.080224	0.10588	-0.052705	-0.0065765	0.0074806	0.0023212	-9.99179	11.6027	-7.11413	0.11066	0.097839	-0.015381	24.80713	121.0242	56.88723	-0.0033989	0.0455627	56.8872	-39	-0.75
21:08:57:07	0	0.98971	-0.080354	0.106	-0.052769	0.0087814	-0.001255	-0.0025158	-10.0088	11.6155	-7.1246	-0.016846	-0.021057	0.037811	24.80713	121.0242	56.88216	-0.0108185	0.0453186	56.8822	-41	3.25
21:08:57:37	0	0.98971	-0.08025	0.10598	-0.052909	0.0091629	0.0040817	-0.002264	-9.99817	11.6124	-7.13938	0.019547	-0.06842	0.0072098	24.80713	121.0242	56.88008	-0.00979614	0.046814	56.8801	-42	6.25
21:08:57:69	0	0.98966	-0.080129	0.10651	-0.052987	-0.00032878	0.011551	-0.0012827	-9.98999	11.6732	-7.15324	-0.11243	-0.082031	0.047546	24.80713	121.0242	56.87914	-0.00217247	0.0549316	56.8791	-40	6.25
21:08:58:00	0	0.98975	-0.079377	0.10618	-0.053105	-0.0082626	0.005722	-0.00071716	-9.90069	11.64	-7.15419	0.020828	0.05658	0.013893	24.80713	121.0242	56.84007	-0.00156212	0.0551453	56.8401	-41	6
21:08:58:31	0	0.9897	-0.079883	0.10633	-0.053061	-0.013	0.0029011	-0.00042748	-9.96052	11.6537	-7.15675	0.0077171	0.062988	-0.0034275	24.80713	121.0242	56.84563	-0.00170326	0.0574951	56.8456	-38	1
21:08:58:62	0	0.9897	-0.078971	0.10678	-0.053388	0.011703	0.012428	0.000916	-9.86235	11.7086	-7.18917	-0.11493	0.12659	0.032867	24.80713	121.0242	56.842	0.00103569	0.0550537	56.842	-38	-1
21:08:58:93	0	0.9897	-0.079463	0.10642	-0.053337	0.038391	0.0077209	-0.0043144	-9.91561	11.6642	-7.18488	0.047424	-0.049744	0.026566	24.80713	121.0242	56.8329	-0.00164032	0.0450134	56.8329	-42	4.5
21:08:59:24	0	0.98964	-0.080002	0.10661	-0.053307	-0.0037766	0.006115	-0.0013704	-9.97993	11.6821	-7.19007	-0.037537	-0.00085831	0.0050583	24.80713	121.0242	56.79101	-0.000813007	0.0513	56.791	-41	3
21:08:59:55	0	0.98965	-0.079527	0.10675	-0.053542	0.010765	0.0060501	0.0038471	-9.92862	11.6996	-7.21328	-0.097778	-0.078491	0.045929	24.80713	121.0242	56.78603	0.00536346	0.0561523	56.786	-39	-0.75
21:08:59:87	0	0.98964	-0.080539	0.10623	-0.053262	0.0058899	0.0071373	-0.00025797	-10.0383	11.6349	-7.18659	0.061829	-0.12732	0.037933	24.80713	121.0242	56.78547	0.00659943	0.0561218	56.7855	-40	-1
21:09:00:17	0	0.9897	-0.079633	0.10626	-0.053456	-0.0015163	-0.0004077	-0.0015898	-9.93539	11.6438	-7.19888	0.00067997	0.055695	-0.0056	24.80713	121.0242	56.79323	0.00488663	0.0556335	56.7932	-38	-0.75
21:09:00:49	0	0.98969	-0.079471	0.10642	-0.053523	0.0014668	0.0090637	0.0016499	-9.91872	11.6617	-7.20649	-0.0040207	0.063416	0.016998	24.80713	121.0242	56.7612	0.0117264	0.0609436	56.7612	-40	-0.25
21:09:00:80	0	0.98967	-0.080201	0.10619	-0.053348	-0.0029182	0.0036488	-0.0029774	-9.99953	11.6318	-7.19212	0.044861	0.073669	-0.02179	24.80713	121.0242	56.74473	0.0117035	0.0626831	56.7447	-40	-0.25
21:09:01:11	0	0.98969	-0.079986	0.10611	-0.053356	0.012276	0.0068283	-0.0030766	-9.97387	11.6247	-7.18964	0.071655	0.051758	-0.006443	24.80714	121.0242	56.7372	0.0134506	0.059021	56.7372	-41	0.75
21:09:01:42	0	0.98962	-0.080981	0.10615	-0.053185	-0.0064583	0.010796	-0.0005703	-10.0882	11.6236	-7.18206	0.026138	-0.11127	0.0021973	24.80714	121.0242	56.71412	0.0185852	0.0661011	56.7141	-39	-1.25
21:09:01:73	0	0.98969	-0.080214	0.10597	-0.053305	0.0059509	0.0064354	-0.0012074	-9.99858	11.6079	-7.18487	0.082153	0.0057869	0.011551	24.80714	121.0242	56.68173	0.0171509	0.0628052	56.6817	-37	-0.5
21:09:02:04	0	0.9897	-0.079613	0.10627	-0.053568	-0.0071678	0.0097046	-0.00095129	-9.93446	11.6437	-7.21182	0.024353	0.10107	-0.015465	24.80714	121.0242	56.6757	0.0167236	0.0650635	56.6757	-36	0.5
21:09:02:35	0	0.98969	-0.079966	0.10609	-0.053501	0.012314	0.011429	-0.0011482	-9.97315	11.6215	-7.20602	0.072815	0.092651	-0.0085297	24.80714	121.0242	56.68179	0.0182648	0.0621948	56.6818	-37	0
21:09:02:66	0	0.98966	-0.080311	0.10611	-0.053453	0.0027809	0.011826	-0.00064087	-10.0128	11.6212	-7.2047	0.049438	-0.017471	0.024063	24.80714	121.0242	56.69604	0.0191956	0.0645142	56.696	-38	1.75
21:09:02:98	0	0.98965	-0.08016	0.1063	-0.053561	0.0092621	0.00243	0.00080109	-9.99839	11.6428	-7.21773	0.032318	0.0017176	0.014122	24.80714	121.0242	56.67367	0.0177917	0.0619202	56.6737	-42	3.5
21:09:03:29	0	0.98962	-0.080276	0.10643	-0.053673	-0.00023234	0.0038528	0.00055027	-10.0144	11.6561	-7.23372	0.025223	-0.039276	0.016846	24.80714	121.0242	56.69117	0.0206757	0.0643921	56.6912	-43	2.25
21:09:03:60	0	0.98959	-0.080286	0.10673	-0.053698	-0.017075	-0.0012026	0.0044708	-10.0187	11.6899	-7.24026	-0.10095	-0.059418	0.049988	24.80714	121.0242	56.71115	0.0141296	0.0647583	56.7111	-41	3
21:09:03:91	0	0.98964	-0.079847	0.10647	-0.053916	-0.0061569	0.0082016	-0.0016298	-9.96768	11.6612	-7.25728	0.089661	-0.050842	0.036926	24.80714	121.0242	56.70934	0.0290985	0.0704346	56.7093	-42	6
21:09:04:22	0	0.98958	-0.080538	0.10655	-0.053723	-0.009964	0.0026646	0.0015078	-10.0467	11.6672	-7.24396	-0.060425	-0.073303	0.10333	24.80714	121.0242	56.67841	0.0231628	0.0684204	56.6784	-39	1
21:09:04:53	0	0.98961	-0.079365	0.10697	-0.054099	0.025543	0.014824	0.0021	-9.91843	11.7204	-7.27871	-0.041077	0.10577	0.0022545	24.80714	121.0242	56.67951	0.0312347	0.0666504	56.6795	-42	4.5
21:09:04:84	0	0.98971	-0.07945	0.10618	-0.053766	0.015625	0.0068169	0.002367	-9.91689	11.6325	-7.23178	0.16418	0.091736	-0.03093	24.80714	121.0242	56.66874	0.0348206	0.0714722	56.6687	-42	6.75
21:09:05:15	0	0.9897	-0.078771	0.10652	-0.054235	0.036285	0.0036049	0.0030422	-9.8466	11.672	-7.28217	0.11017	0.047546	0.010254	24.80714	121.0242	56.67048	0.021637	0.0568237	56.6705	-42	6.5
21:09:05:46	0	0.98962	-0.079811	0.10664	-0.053927	-0.0040436	0.011169	0.0088806	-9.96526	11.6809	-7.26009	-0.12732	-0.080627	0.0099258	24.80714	121.0242	56.64869	0.026123	0.0653076	56.6487	-42	7.5
21:09:05:77	0	0.98959	-0.079841	0.10683	-0.054125	0.019821	0.016739	0.0049286	-9.97296	11.7007	-7.28576	-0.090393	-0.039124	0.014206	24.80714	121.0242	56.6645	0.0332031	0.0678101	56.6645	-41	6.25
21:09:06:08	0	0.98964	-0.078804	0.10699	-0.054381	0.046539	0.021957	0.0011883	-9.85656	11.7235	-7.30496	-0.0085526	-0.12952	0.02684	24.80714	121.0242	56.67538	0.0340576	0.0621948	56.6754	-41	6.5
21:09:06:40	0	0.98963	-0.079921	0.10638	-0.0541	0.00050545	0.00076485	0.00027728	-9.97768	11.6489	-7.27846	0.088257	-0.17432	0.029282	24.80714	121.0242	56.68347	0.0317383	0.0684204	56.6835	-42	2.25
21:09:06:71	0	0.98967	-0.079385	0.10643	-0.054119	0.024277	0.0095901	-0.0015306	-9.91589	11.6585	-7.27495	0.038177	-0.012703	0.031494	24.80714	121.0242	56.66687	0.0305786	0.0618896	56.6669	-41	5.75
21:09:07:02	0	0.9897	-0.07861	0.10657	-0.054406	0.014412	0.0097427	0.0030479	-9.83026	11.6769	-7.30072	0.15393	0.0062904	-0.0050583	24.80714	121.0242	56.68064	0.031189	0.0623474	56.6806	-41	4.25
21:09:07:33	0	0.98966	-0.07893	0.10674	-0.054335	-0.00034213	-0.0039482	0.0099869	-9.86838	11.695	-7.29821	0.0065498	0.13025	0.017242	24.80714	121.0242	56.68918	0.0276947	0.0646362	56.6892	-42	6
21:09:07:64	0	0.98963	-0.078477	0.10724	-0.054617	0.025085	0.01329	0.00054073	-9.82363	11.7522	-7.33129	-0.14624	-0.013847	0.029739	24.80714	121.0242	56.69674	0.0290527	0.0612183	56.6967	-42	5.5
21:09:07:95	0	0.9896	-0.078755	0.10728	-0.054503	0.033386	0.021484	-0.0029602	-9.8551	11.7566	-7.3219	-0.18567	-0.15784	0.016251	24.80714	121.0242	56.67663	0.0314026	0.0559692	56.6766	-41	6.75
21:09:08:26	0	0.98963	-0.08015	0.10628	-0.054034	-0.011368	0.00079727	0.0021801	-10.0026	11.6364	-7.2724	0.038757	-0.23584	0.042023	24.80714	121.0242	56.67842	0.0329285	0.0648193	56.6784	-41	6.75
21:09:08:57	0	0.9897	-0.07823	0.10674	-0.054555	0.0038452	-0.00494	-0.0009203	-9.78936	11.6975	-7.31544	-0.041748	0.083252	-0.0098114	24.80714	121.0242	56.68364	0.0247498	0.0560608	56.6836	-41	6.5
21:09:08:89	0	0.98963	-0.079549	0.10655	-0.054322	0.0019627	-0.0012417	0.0031624	-9.93845	11.668	-7.30179	-0.034607	-0.15649	0.012779	24.80714	121.0242	56.69028	0.0285645	0.0536804	56.6903	-42	4.75
21:09:09:19	0	0.98962	-0.079812	0.10649	-0.054268	-0.019089	-0.0055351	0.008606	-9.96787	11.6597	-7.2979	-0.0068092	-0.11981	-0.0026455	24.80714	121.0242	56.65379	0.0297089	0.0543518	56.6538	-41	6.5
21:09:09:51	0	0.98972	-0.077785	0.10686	-0.054611	0.019699	0.015244	0.0062103	-9.73924	11.7137	-7.31793	-0.080505	0.13074	-0.046875	24.80714	121.0242	56.65146	0.0340271	0.0495911	56.6515	-41	6.5
21:09:09:82	0	0.98959	-0.080132	0.10653	-0.054208	-0.0093842	-0.0092773	-0.00085878	-10.0049	11.6629	-7.2952	-0.082764	-0.42749	0.066345	24.80714	121.0242	56.66479	0.0244141	0.0451355	56.6648	-41	5.5
21:09:10:13	0	0.9896	-0.080046	0.10654	-0.054166	-0.027069	0.016022	-0.0033188	-9.9945	11.665	-7.28942	-0.037537	-0.016891	0.0083618	24.80714	121.0242	56.64649	0.0439148	0.0609741	56.6465	-41	5
21:09:10:44	0	0.98974	-0.078883	0.10608	-0.054163	-0.0039864	0.016388	-0.00099754	-9.85453	11.6209	-7.27	0.076111	0.097717	-0.010658	24.80714	121.0242	56.614	0.0380249	0.0538635	56.614	-39	-0.5
21:09:10:75	0	0.98968	-0.078411	0.10689	-0.054485	0.018188	-0.0016413	0.003067	-9.81113	11.7147	-7.3112	-0.20911	0.10242	-0.0079651	24.80714	121.0242	56.61679	0.0256042	0.042572	56.6168	-42	6
21:09:11:06	0	0.9896	-0.079808	0.1067	-0.054254	0.023331	0.0061226	-0.0018291	-9.96923	11.6839	-7.29874	-0.17529	-0.12177	0.05658	24.80714	121.0242	56.59888	0.027771	0.0413513	56.5989	-41	6.75
21:09:11:37	0	0.98967	-0.079819	0.10605	-0.054148	0.0023613	0.012939	-0.0035439	-9.96314	11.6112	-7.279	0.055603	0.027786	0.01001	24.80714	121.0242	56.60132	0.0386353	0.0513	56.6013	-41	6.75
21:09:11:68	0	0.9897	-0.079676	0.1059	-0.054071	0.012383	0.011124	-0.00040412	-9.94415	11.5957	-7.26651	0.023773	0.10626	0.0071106	24.80714	121.0242	56.5836	0.0259247	0.037262	56.5836	-41	6.75
21:09:12:00	0	0.98969	-0.079536	0.10604	-0.054236	0.021835	0.0099335	-0.0024242	-9.93107	11.6111	-7.28566	0.020218	-0.053864	0.019791	24.80714	121.0242	56.59837	0.0247192	0.0336304	56.5984	-42	6.25
21:09:12:31	0	0.98965	-0.079533	0.10632	-0.054469	-0.00073624	0.0017338	-0.0016928	-9.93619	11.6407	-7.31598	-0.011826	-0.052826	0.022919	24.80714	121.0242	56.59607	0.0257263	0.0391235	56.5961	-42	4.75
21:09:12:62	0	0.98969	-0.079467	0.10605	-0.054273	0.0036678	0.0022831	-0.0024757	-9.92358	11.6123	-7.28924	-0.011986	0.035706	-0.0043907	24.80714	121.0242	56.58933	0.0237427	0.0386047	56.5893	-40	6.25
21:09:12:93	0	0.98969	-0.079074	0.10627	-0.054549	0.013832	0.0083694	-0.0033836	-9.88318	11.6382	-7.31933	-0.029282	0.12128	-0.027878	24.80714	121.0242	56.58467	0.0243988	0.0370483	56.5847	-42	6.25
21:09:13:24	0	0.98966	-0.078894	0.10655	-0.054653	0.0033646	0.0088577	0.0030937	-9.86605	11.6696	-7.33246	-0.038544	-0.055603	0.03598	24.80714	121.0242	56.57171	0.0243378	0.0383911	56.5717	-40	-1
21:09:13:55	0	0.98968	-0.079644	0.10597	-0.054328	-0.015045	-0.009079	0.00087404	-9.94415	11.6018	-7.29693	0.017365	-0.029297	0.0040207	24.80714	121.0242	56.55468	0.0206146	0.0424805	56.5547	-41	4.75
21:09:13:86	0	0.98966	-0.079405	0.1062	-0.054661	0.0089417	0.0029259	-0.00051403	-9.92231	11.6261	-7.33537	0.032532	0.042084	-0.0072136	24.80714	121.0242	56.56058	0.0222778	0.0372314	56.5606	-40	-0.25
21:09:14:17	0	0.98967	-0.078925	0.10638	-0.054894	-0.0031834	0.014534	0.0036411	-9.87092	11.6484	-7.35894	0.031799	0.0037708	-0.010841	24.80715	121.0242	56.55898	0.0277557	0.0420837	56.559	-38	-0.75
21:09:14:48	0	0.98972	-0.078328	0.1063	-0.054904	-0.00076962	-0.0057182	-0.0016851	-9.8007	11.6435	-7.3521	-0.0044937	-0.0026588	0.024948	24.80715	121.0242	56.54224	0.0213623	0.0387268	56.5422	-36	-1
21:09:14:80	0	0.98967	-0.079436	0.10601	-0.054747	-0.018143	0.0016823	-0.0038471	-9.92515	11.6031	-7.34348	0.064758	-0.097046	0.056366	24.80715	121.0242	56.53123	0.0196686	0.0372314	56.5312	-38	-0.5
21:09:15:10	0	0.98968	-0.079185	0.10613	-0.054706	3.61E-05	0.0074272	0.0021725	-9.89651	11.6192	-7.33722	0.041321	-0.045959	0.0005064	24.80715	121.0242	56.52393	0.0255585	0.0389404	56.5239	-37	-0.75
21:09:15:42	0	0.98964	-0.079583	0.1062	-0.054767	-0.011841	0.014847	-0.0023003	-9.94436	11.6238	-7.34984	-0.023956	-0.022614	0.0027504	24.80715	121.0242	56.52485	0.0258026	0.0420837	56.5248	-42	5.75
21:09:15:73	0	0.98969	-0.079114	0.10602	-0.054978	0.0095367	0.0050316	-0.00026083	-9.89039	11.6039	-7.36652	0.035828	-0.064758	0.021896	24.80715	121.0242	56.48323	0.0232544	0.0369263	56.4832	-42	3.75
21:09:16:04	0	0.98966	-0.07977	0.10589	-0.05474	-0.018204	-0.0081024	0.0045662	-9.96278	11.5867	-7.34512	0.0046997	-0.062317	0.027832	24.80715	121.0242	56.46366	0.0199738	0.0392761	56.4637	-43	4.75
21:09:16:35	0	0.98966	-0.079534	0.10601	-0.05486	0.012146	0.011833	-0.00010329	-9.93786	11.6017	-7.35778	0.053711	-0.039063	0.010506	24.80715	121.0242	56.45	0.0233612	0.0327759	56.45	-39	6
21:09:16:66	0	0.98973	-0.07911	0.10578	-0.054744	0.0076027	-0.008812	0.0032444	-9.88494	11.579	-7.33657	-0.045929	0.11938	0.0021172	24.80715	121.0242	56.43629	0.0154572	0.0279388	56.4363	-39	6.5
21:09:16:97	0	0.98967	-0.079329	0.10601	-0.054922	0.017838	0.0091629	0.0012684	-9.91481	11.6028	-7.36261	0.010689	-0.025421	0.020813	24.80715	121.0242	56.41209	0.0222321	0.028717	56.4121	-40	6.5
21:09:17:28	0	0.9896	-0.080215	0.10615	-0.054756	-0.013046	0.0031528	0.0044518	-10.0174	11.6139	-7.35542	-0.0672	-0.12103	0.051819	24.80715	121.0242	56.40942	0.0203552	0.0305786	56.4094	-40	7
21:09:17:59	0	0.98971	-0.079086	0.10593	-0.054789	-0.0067368	-0.0054245	0.0037022	-9.88409	11.596	-7.34324	-0.040649	0.11572	-0.010826	24.80715	121.0242	56.39907	0.0192871	0.0289917	56.3991	-39	5.5
21:09:17:91	0	0.98963	-0.079692	0.10614	-0.054887	0.003336	0.013916	0.0031853	-9.95793	11.6152	-7.36437	-0.035248	-0.010376	0.018738	24.80715	121.0242	56.39018	0.0205841	0.0291595	56.3902	-40	6.5
21:09:18:22	0	0.98971	-0.078994	0.10593	-0.054925	0.010117	0.0037022	0.0018978	-9.87491	11.5955	-7.35801	-0.033875	0.11041	0.00063801	24.80715	121.0242	56.37326	0.0155716	0.0249786	56.3733	-40	6.5
21:09:18:53	0	0.98965	-0.079505	0.10612	-0.054928	0.0043526	0.01194	0.0064888	-9.93635	11.613	-7.36655	-0.085693	-0.044128	0.0019159	24.80715	121.0242	56.35493	0.0103912	0.0162506	56.3549	-40	6.5
21:09:18:84	0	0.98964	-0.079788	0.10591	-0.054983	0.0057411	-0.009079	0.0028152	-9.9679	11.5865	-7.37379	-0.024902	-0.049652	0.033051	24.80715	121.0242	56.34657	0.00556946	0.0279846	56.3466	-41	6.25
21:09:19:15	0	0.98959	-0.079461	0.10647	-0.055308	0.0063133	-0.0091705	0.0037098	-9.93907	11.6502	-7.41439	-0.083679	0.12097	-0.050323	24.80715	121.0242	56.29582	0.00557709	0.0288544	56.2958	-41	6.75
21:09:19:46	0	0.98963	-0.079733	0.10597	-0.055239	-0.016144	0.0041466	-0.001008	-9.96506	11.5913	-7.40364	0.04718	-0.066162	0.040924	24.80715	121.0242	56.24257	0.00193214	0.0317688	56.2426	-41	7
21:09:19:77	0	0.98959	-0.079354	0.10645	-0.055485	-0.00076437	0.0021973	-0.00030541	-9.92846	11.6468	-7.43331	-0.087097	0.022812	0.039459	24.80715	121.0242	56.22221	-0.000393391	0.0261383	56.2222	-41	6.75
21:09:20:08	0	0.98962	-0.078986	0.10643	-0.055621	-0.0074425	0.011833	-0.00058985	-9.88705	11.646	-7.44463	-0.029877	0.075745	-0.0092621	24.80715	121.0242	56.22195	0.00427246	0.0283508	56.2219	-40	-0.5
21:09:20:39	0	0.98959	-0.079386	0.10636	-0.055609	0.010345	0.0089951	-0.0010729	-9.93279	11.6353	-7.44714	-0.004509	-0.0014076	0.036316	24.80715	121.0242	56.21278	0.00344658	0.0271454	56.2128	-39	-0.25
21:09:20:71	0	0.9896	-0.079686	0.10615	-0.055453	0.0076332	0.0083389	-0.0007515	-9.9639	11.6108	-7.43009	0.051544	-0.03418	0.014313	24.80715	121.0242	56.20258	0.00156116	0.0234985	56.2026	-42	6.25
21:09:21:01	0	0.98958	-0.079525	0.10633	-0.055597	-0.0062256	0.00045896	-0.0015154	-9.94857	11.6312	-7.44704	0.031204	0.012505	0.019547	24.80715	121.0242	56.19748	0.00224876	0.0267181	56.1975	-42	4.75
21:09:21:33	0	0.98952	-0.07992	0.10663	-0.055616	0.0055275	0.0043716	0.00097322	-9.99772	11.6615	-7.45742	-0.0054626	-0.01796	0.044403	24.80715	121.0242	56.19013	0.00189304	0.0242462	56.1901	-41	3.25
21:09:21:64	0	0.98947	-0.080068	0.10688	-0.055823	-0.0097122	0.0056	-0.001236	-10.0199	11.6878	-7.4862	-0.017288	-0.075867	0.031403	24.80715	121.0242	56.18988	0.00758743	0.0273438	56.1899	-41	2.75
21:09:21:95	0	0.98956	-0.079377	0.1065	-0.05596	-0.014557	0.031235	0.0021992	-9.93722	11.6473	-7.48934	0.14038	0.13257	-0.078125	24.80715	121.0242	56.17663	0.0168304	0.02948	56.1766	-41	6.5
21:09:22:26	0	0.9895	-0.079631	0.10679	-0.05602	0.0088043	-0.0073547	0.0027065	-9.97038	11.6786	-7.50288	-0.020294	0.059509	0.018448	24.80715	121.0242	56.18416	0.00317574	0.0197144	56.1842	-41	6.5
21:09:22:57	0	0.98947	-0.080004	0.10682	-0.056001	0.0057793	0.0062981	0.00029063	-10.014	11.6793	-7.50541	-0.046875	-0.09967	0.026245	24.80715	121.0242	56.18923	0.00392151	0.0184021	56.1892	-41	6.5
21:09:22:88	0	0.9895	-0.079849	0.10665	-0.056029	-0.014076	0.0057793	-0.001936	-9.99458	11.661	-7.50487	0.017273	-0.013733	0.010712	24.80715	121.0242	56.19183	0.00930023	0.0258942	56.1918	-41	6.25
21:09:23:19	0	0.98949	-0.079773	0.10672	-0.056108	-0.001049	0.0020943	0.0022354	-9.98735	11.6688	-7.51389	0.088501	0.062256	-0.0025139	24.80715	121.0242	56.20407	0.00617218	0.0214386	56.2041	-43	2.25
21:09:23:50	0	0.9895	-0.079672	0.10671	-0.056218	0.010483	0.0048637	0.0055237	-9.97681	11.6674	-7.52543	0.10327	0.062439	0.014175	24.80715	121.0242	56.21823	0.00686646	0.0158234	56.2182	-41	5.5
21:09:23:82	0	0.98967	-0.079473	0.1053	-0.05611	0.0078278	-0.019501	-0.005188	-9.93852	11.5085	-7.49395	0.72119	0.094299	0.17883	24.80715	121.0242	56.21705	0.0140228	0.0155411	56.217	-41	6.5
21:09:24:12	0	0.98947	-0.080335	0.10647	-0.056149	-0.048096	0.013718	0.0073357	-10.0507	11.6351	-7.5223	0.070313	-0.15271	0.078186	24.80715	121.0242	56.21196	0.00809479	0.0232086	56.212	-41	6.5
21:09:24:44	0	0.98952	-0.079252	0.10666	-0.056433	-0.021301	-0.011055	0.0039825	-9.92976	11.6616	-7.54467	-0.032654	0.12683	-0.0011549	24.80715	121.0242	56.20659	0.00481415	0.0221252	56.2066	-42	6.75
21:09:24:75	0	0.98938	-0.079262	0.10789	-0.056637	0.0041809	0.089417	0.0056915	-9.94558	11.8012	-7.58314	-0.57275	0.16162	-0.30615	24.80715	121.0242	56.21965	0.0182495	0.0222626	56.2197	-42	6.5
21:09:25:06	0	0.98948	-0.079955	0.10653	-0.056438	0.058167	0.0065041	-0.0032959	-10.0105	11.6419	-7.55209	-0.049805	-0.23596	0.02478	24.80715	121.0242	56.23493	0.00959015	0.00872803	56.2349	-42	6.75
21:09:25:37	0	0.98941	-0.080327	0.10675	-0.056749	-0.022583	0.0084152	-0.004303	-10.0597	11.6615	-7.59527	-0.28589	-0.28955	0.37695	24.80715	121.0242	56.24751	0.00222778	0.0183411	56.2475	-42	6.75
21:09:25:68	0	0.98949	-0.078681	0.10724	-0.056716	0.03775	-0.0025711	-0.0062561	-9.87236	11.7301	-7.57766	-0.34888	0.17834	0.087341	24.80715	121.0242	56.2397	0.00478745	0.0179596	56.2397	-41	6
21:09:25:99	0	0.98953	-0.079448	0.10634	-0.056701	0.032745	0.010033	-0.0017977	-9.95267	11.6212	-7.57435	0.18542	-0.061493	-0.0076218	24.80715	121.0242	56.25965	0.00764465	0.0110092	56.2597	-41	6.75
21:09:26:30	0	0.98945	-0.080009	0.10664	-0.056656	-0.0076866	0.01059	-0.0027599	-10.0205	11.6521	-7.57941	-0.014122	-0.09845	-0.028564	24.80715	121.0242	56.25399	0.00918579	0.016098	56.254	-41	6.75
21:09:26:61	0	0.98945	-0.080054	0.10666	-0.056634	-0.0088654	0.01255	0.0010614	-10.0256	11.654	-7.57757	-0.064453	-0.090088	0.026291	24.80715	121.0242	56.24795	0.0092926	0.0171967	56.2479	-41	6.25
21:09:26:92	0	0.98948	-0.079833	0.10646	-0.056692	-0.0033703	0.0029411	-0.00050783	-9.99859	11.6326	-7.5794	0.0093918	-0.026871	0.030899	24.80715	121.0242	56.25647	0.00888824	0.0171509	56.2565	-40	6.5
21:09:27:23	0	0.98947	-0.079802	0.10654	-0.056816	-0.0014744	0.0036373	-0.00098133	-9.99711	11.6398	-7.5942	-0.00031567	0.0084152	0.011284	24.80715	121.0242	56.23504	0.00480652	0.0166016	56.235	-41	6.75
21:09:27:55	0	0.98947	-0.079734	0.10654	-0.056894	0.0036507	0.0054626	0.00028062	-9.99016	11.6401	-7.60255	0.0080109	-0.0017996	0.0065155	24.80715	121.0242	56.23135	0.00357056	0.0131226	56.2313	-38	6.25
21:09:27:86	0	0.98949	-0.079642	0.10645	-0.056882	-1.07E-05	0.0052605	-0.0004847	-9.97845	11.6301	-7.59898	0.02327	0.011452	-0.0020275	24.80715	121.0242	56.23361	0.0064888	0.0172729	56.2336	-41	4.75
21:09:28:17	0	0.98948	-0.079735	0.10644	-0.056881	0.0035286	0.0032616	0.0034161	-9.98911	11.6286	-7.59985	0.01516	-0.0017576	-0.0020638	24.80715	121.0242	56.22791	0.00395584	0.0172882	56.2279	-41	6.5
21:09:28:48	0	0.98948	-0.079709	0.10648	-0.056927	0.0027695	-9.10E-05	0.0039215	-9.98709	11.6335	-7.60544	-0.012222	-0.0099869	0.028473	24.80715	121.0242	56.22727	0.00460434	0.0160828	56.2273	-40	6.75
21:09:28:79	0	0.98947	-0.079748	0.10651	-0.057002	0.00034833	0.0031528	0.0030041	-9.99286	11.6361	-7.61495	-0.0096512	-0.028427	0.017609	24.80715	121.0242	56.23635	0.00499725	0.015976	56.2364	-41	6.75
21:09:29:10	0	0.98947	-0.079822	0.10646	-0.056964	0.0018835	0.0011292	0.0033379	-10.0005	11.6299	-7.61079	-0.022278	-0.020523	0.012695	24.80715	121.0242	56.23864	0.00494766	0.0143738	56.2386	-41	6.25
21:09:29:41	0	0.98948	-0.079808	0.1064	-0.05698	0.00029469	0.00097752	0.0029583	-9.99844	11.6223	-7.6117	-0.0043564	-0.012787	0.010925	24.80715	121.0242	56.24591	0.00503159	0.0152283	56.2459	-41	6.25
21:09:29:73	0	0.98948	-0.079737	0.10643	-0.057034	0.0029011	0.0013475	0.0027485	-9.99113	11.6261	-7.6176	-0.01339	0.00024045	0.018417	24.80715	121.0242	56.23696	0.00312996	0.0133514	56.237	-41	7
21:09:30:03	0	0.98944	-0.079992	0.10652	-0.057118	-0.0023956	-0.0016947	0.0050659	-10.0227	11.6337	-7.63134	-0.061005	-0.13599	0.028091	24.80715	121.0242	56.25093	-0.000107169	0.0119171	56.2509	-41	7
21:09:30:35	0	0.98945	-0.079981	0.10643	-0.057153	-0.0034809	-0.0036583	0.0014753	-10.0209	11.6226	-7.63422	-0.031342	-0.034912	0.00035191	24.80715	121.0242	56.25846	0.00216103	0.013649	56.2585	-41	6.75
21:09:30:66	0	0.98947	-0.079716	0.1064	-0.057232	0.002142	0.0026417	0.0012302	-9.99065	11.6206	-7.63996	0.0027523	0.020432	0.0046959	24.80715	121.0242	56.27605	0.00400925	0.014801	56.276	-41	6.75
21:09:30:97	0	0.98945	-0.079893	0.10647	-0.057254	-0.00179	0.0056686	-0.00086021	-10.0122	11.6268	-7.64534	-0.049988	-0.012581	0.0064621	24.80715	121.0242	56.25837	0.00199318	0.0139771	56.2584	-41	6.75
21:09:31:28	0	0.98948	-0.079631	0.10627	-0.057355	-0.010078	0.012192	-0.0023518	-9.98092	11.6056	-7.65167	-0.019928	0.044891	0.0088348	24.80716	121.0242	56.25392	0.00625229	0.018631	56.2539	-42	6.5
21:09:31:59	0	0.9895	-0.079646	0.10605	-0.057365	0.0048866	0.00016212	-0.0019894	-9.98063	11.5797	-7.65037	0.057465	-0.01458	0.024323	24.80716	121.0242	56.25985	0.0011158	0.011322	56.2598	-41	6.25
21:09:31:90	0	0.98948	-0.079575	0.10626	-0.057418	-0.0020428	0.0038929	8.76E-05	-9.97507	11.6045	-7.65822	0.041382	0.06781	4.58E-05	24.80716	121.0242	56.25702	0.00355911	0.0119476	56.257	-40	6.75
21:09:32:21	0	0.98952	-0.079113	0.10626	-0.057485	0.0044556	0.0032349	0.0010452	-9.92207	11.6071	-7.66059	-0.077881	0.12549	-0.09198	24.80716	121.0242	56.24014	0.00244141	0.0155029	56.2401	-41	6.5
21:09:32:52	0	0.98981	-0.076917	0.10519	-0.057422	0.010551	-0.0055885	-0.00060797	-9.655	11.5018	-7.61498	0.024658	0.19824	0.041199	24.80716	121.0242	56.25591	-0.00217056	0.00887299	56.2559	-41	6.75
21:09:32:83	0	0.98972	-0.077962	0.10537	-0.057291	-0.00057745	0.0092468	0.0015545	-9.77694	11.5161	-7.61408	-0.10663	-0.074341	-0.013771	24.80716	121.0242	56.26335	0.00582504	0.0112457	56.2634	-41	6.75
21:09:33:14	0	0.98969	-0.078142	0.10539	-0.057457	0.011391	-0.0057106	-0.0028553	-9.80006	11.5152	-7.63573	0.010223	0.021515	-0.0079346	24.80716	121.0242	56.27855	0.00576782	0.0129166	56.2786	-41	6.5
21:09:33:46	0	0.98972	-0.07826	0.10504	-0.057424	0.024521	-0.012352	-0.0012255	-9.81	11.4749	-7.62927	0.2854	0.13733	0.069336	24.80716	121.0242	56.28205	0.00674438	0.0161133	56.2821	-42	6
21:09:33:76	0	0.98947	-0.079774	0.10622	-0.057458	-0.0010042	0.0098114	0.00072527	-9.99837	11.5976	-7.6648	-0.13208	-0.18079	0.10089	24.80716	121.0242	56.30688	0.00350571	0.012085	56.3069	-42	5.75
21:09:34:08	0	0.98952	-0.079357	0.10604	-0.05754	-0.0057411	0.011238	-0.0013065	-9.94893	11.5792	-7.66724	-0.042816	-0.031372	-0.01741	24.80716	121.0242	56.32011	0.0108261	0.0188141	56.3201	-42	6.75
21:09:34:39	0	0.98956	-0.079461	0.1056	-0.057498	0.0077744	-0.0081635	-0.00091982	-9.95618	11.5288	-7.65845	0.050781	-0.00086641	-0.012535	24.80716	121.0242	56.31736	0.00496674	0.0129089	56.3174	-40	1.75
21:09:34:70	0	0.98954	-0.079415	0.10576	-0.057602	0.01165	-0.0090408	0.0037308	-9.95355	11.5463	-7.67181	-0.059021	-0.070129	0.012009	24.80716	121.0242	56.33141	-0.00269127	0.0079422	56.3314	-40	6.75
21:09:35:01	0	0.98959	-0.078961	0.10566	-0.05751	0.0043602	0.010307	-0.00035453	-9.89863	11.5395	-7.65462	-0.032135	-0.076416	0.024033	24.80716	121.0242	56.33798	0.0147934	0.0161743	56.338	-38	6.25
21:09:35:32	0	0.98956	-0.079427	0.10562	-0.057461	-0.0049591	0.0027943	0.00077057	-9.952	11.532	-7.65391	0.078186	0.08075	-0.0033302	24.80716	121.0242	56.36139	0.0147705	0.0179596	56.3614	-37	6
21:09:35:63	0	0.98952	-0.079387	0.10588	-0.057751	0.0069313	0.0050125	0.0027733	-9.9533	11.5587	-7.69019	0.071533	0.11938	0.0045433	24.80716	121.0242	56.34969	0.0112381	0.0115356	56.3497	-40	6.25
21:09:35:94	0	0.98955	-0.079078	0.10585	-0.057796	0.00052357	0.0040016	0.00097418	-9.91745	11.5569	-7.69142	0.050415	0.0025673	0.043823	24.80716	121.0242	56.32369	0.010582	0.0133591	56.3237	-41	6.75
21:09:36:25	0	0.98945	-0.078743	0.10682	-0.058094	0.0072403	0.012856	-0.00010282	-9.89174	11.6684	-7.73358	-0.08136	0.016678	-0.044922	24.80716	121.0242	56.33889	0.0179138	0.0115891	56.3389	-40	6.5
21:09:36:57	0	0.98947	-0.078994	0.10649	-0.058106	-1.78E-05	-0.0010805	0.0012236	-9.91774	11.6281	-7.73396	-0.043854	-0.1615	0.032257	24.80716	121.0242	56.32954	0.0127716	0.0131683	56.3295	-40	6
21:09:36:87	0	0.98947	-0.079004	0.10645	-0.058083	-0.018326	-0.0023041	0.002634	-9.91818	11.6231	-7.73094	-0.037048	0.063965	0.0059471	24.80716	121.0242	56.30465	0.0156555	0.0178223	56.3047	-39	5.75
21:09:37:19	0	0.98947	-0.078901	0.10648	-0.058265	0.011139	0.0006032	0.00026703	-9.90872	11.6262	-7.75125	-0.013756	0.054993	-0.0030212	24.80716	121.0242	56.27014	0.0148697	0.0123901	56.2701	-39	5.75
21:09:37:50	0	0.98946	-0.079215	0.10636	-0.058126	-0.020599	0.0029869	0.0037518	-9.94238	11.6113	-7.73738	0.0070534	0.015083	0.022736	24.80716	121.0242	56.26704	0.0150909	0.0145111	56.267	-39	5.75
21:09:37:81	0	0.98949	-0.078406	0.10651	-0.05839	-0.0067101	-0.0022011	0.00028944	-9.85272	11.6319	-7.76027	-0.00077438	0.18494	-0.0098343	24.80716	121.0242	56.2647	0.0152359	0.0133209	56.2647	-40	5.75
21:09:38:12	0	0.98942	-0.07884	0.10684	-0.058481	0.0081863	0.01796	0.0014048	-9.90768	11.6651	-7.77984	-0.020309	0.030365	0.032806	24.80716	121.0242	56.26492	0.0197449	0.0100632	56.2649	-40	6.25
21:09:38:43	0	0.98946	-0.078632	0.10653	-0.058555	0.016327	0.0060081	0.00094938	-9.8812	11.6307	-7.78236	0.17529	0.013855	0.017685	24.80716	121.0242	56.25333	0.0216827	0.0101166	56.2533	-39	6.25
21:09:38:74	0	0.98941	-0.07981	0.10637	-0.058139	-0.03302	-0.0047226	0.0052986	-10.0119	11.6072	-7.74594	-0.07373	0.054749	0.0081177	24.80716	121.0242	56.25282	0.0220642	0.0187683	56.2528	-40	6.25
21:09:39:05	0	0.98942	-0.079311	0.10654	-0.05841	0.0017328	0.0053368	0.0026112	-9.95871	11.6284	-7.77361	0.010658	-0.010674	0.012032	24.80716	121.0242	56.24805	0.0239563	0.0111313	56.248	-40	6.75
21:09:39:36	0	0.98945	-0.078497	0.1067	-0.058672	-0.013031	-0.0029697	0.0010481	-9.86866	11.6506	-7.79641	0.11774	0.13367	-0.035583	24.80716	121.0242	56.22158	0.0235138	0.0112228	56.2216	-40	6.75
21:09:39:67	0	0.98939	-0.07856	0.1072	-0.058761	0.004425	0.0089722	0.0034733	-9.88201	11.7058	-7.81328	-0.02887	0.045807	0.013077	24.80716	121.0242	56.21566	0.0243835	0.00624847	56.2157	-40	6.25
21:09:39:99	0	0.9894	-0.07932	0.10662	-0.058586	-0.00091505	0.0014038	0.001667	-9.96268	11.6352	-7.79508	0.01741	-0.043091	0.013191	24.80716	121.0242	56.2095	0.0252075	0.00696564	56.2095	-40	6.25
21:09:40:30	0	0.9894	-0.079567	0.1064	-0.058559	-0.0042572	0.0020752	-0.0022564	-9.98893	11.6091	-7.79232	-0.012291	-0.0060959	0.0034294	24.80716	121.0242	56.22455	0.0253448	0.00444412	56.2245	-39	6
21:09:40:61	0	0.9894	-0.079227	0.10658	-0.058761	0.0026035	0.0055847	-0.00069857	-9.95349	11.6299	-7.81388	-0.015747	0.065979	-0.0026588	24.80716	121.0242	56.23161	0.0267487	0.00431442	56.2316	-40	7
