UTC,Pack_count,q0,q1,q2,q3,RollRate,PitchRate,YawRate,Roll,Pitch,Yaw,FreeAccX,FreeAccY,FreeAccZ,Lat,Long,Height,VelX,VelY,VelZ,LoRaRSSI,LoRaSNR,
20:58:41:66,0,0.99286   -0.015175    0.022174    -0.11625,-0.027435   -0.039673     0.38989,-2.02401      2.32129     -13.3978,0.48975      1.6748     -1.0303,24.80716      121.0242      51.55797,0.244629    -0.489746       51.558,-42,6.5,
20:58:41:97,0,0.99794   -0.012811    0.024277   -0.057921,0.036011   -0.018936     0.34521,-1.6281      2.6921     -6.6818,-0.24219     0.31641     -1.0537,24.80716      121.0242      51.57296,0.311279    -0.381348       51.573,-40,6.25,
20:58:42:28,0,0.99951   -0.013926    0.027176  -0.0070265,-0.090759    0.082092     0.31323,-1.6195      3.1029    -0.84943,0.36841     -1.4326     0.40088,24.80716      121.0242      51.57179,0.365723     -0.29126      51.5718,-37,6.5,
20:58:42:59,0,0.999    -0.01106    0.028786    0.032379,0.20032   -0.084106     0.20715,-1.1613      3.3383       3.679,-0.65234      1.3496     0.15259,24.80716      121.0242      51.58306,0.211182    -0.220703      51.5831,-36,6.5,
20:58:42:91,0,0.99814   -0.006144    0.019705    0.057339,0.058533   -0.071411     0.11835,-0.57374      2.2949      6.5641,-0.56787     0.76953     0.61816,24.80716      121.0242      51.59566,0.153198   -0.0999146      51.5957,-36,6.5,
20:58:43:22,0,0.99727  -0.0042393    0.014068    0.072398,0.17249   -0.030975     0.10626,-0.36791       1.643      8.2991,0.40674    -0.19653      -1.917,24.80716      121.0242      51.59148,0.171997     -0.13855      51.5915,-35,6.5,
20:58:43:53,0,0.99582   0.0025334   0.0042013    0.091183,0.005558   -0.064941     0.14465,0.333008     0.452961      10.4648,1.957     0.84277      1.7451,24.80716      121.0242      51.61837,0.254883    -0.233521      51.6184,-33,5.75,
20:58:43:84,0,0.99416   0.0072458  -0.0012415     0.10762,-0.16528  -0.0048943     0.12323,0.810179    -0.230794      12.3555,1.0615     -3.2559     0.69629,24.80716      121.0242      51.62243,0.462158    -0.258057      51.6224,-33,6,
20:58:44:15,0,0.99239  0.00084116  -0.0012135      0.1231,-0.15063   -0.016953    0.074402,0.0785385     -0.14987      14.1415,0.15637      1.8213      0.8335,24.80716      121.0242      51.61755,0.668945    -0.310303      51.6175,-35,7,
20:58:44:46,0,0.99134  -0.0068336  -0.0037251     0.13112,-0.14502   -0.049408     0.06897,-0.832299    -0.320487      15.0716,0.81836    -0.95703     0.75195,24.80715      121.0242      51.61152,0.848633    -0.577148      51.6115,-32,6,
20:58:44:77,0,0.99106   0.0014437   -0.011788     0.13291,-0.091919    -0.35742    0.045105,-0.015589     -1.36089      15.2767,0.29834      1.7734      2.5879,24.80715      121.0242      51.62472,1.00977    -0.810547      51.6247,-33,6.25,
20:58:45:08,0,0.99227    0.016562   -0.026691     0.12009,-0.30127    -0.19177    -0.19861,1.51846     -3.26457      13.7586,1.832    -0.31567    -0.57861,24.80715      121.0242      51.63776,1.2998     -0.96582      51.6378,-35,6.5,
20:58:45:39,0,0.99751    0.012994   -0.027324    0.063751,0.10797    0.062561    -0.39282,1.2879       -3.22      7.2775,0.64355     -2.9609    -0.39404,24.80715      121.0242       51.6447,1.61133     -1.36914      51.6447,-40,6.25,
20:58:45:71,0,0.99981     0.00172   -0.019198   0.0028396,-0.08606     0.02919    -0.32837,0.19096     -2.2006     0.32178,-0.28711     -1.9893      1.3672,24.80715      121.0242      51.66413,1.81055     -1.84473      51.6641,-49,6.25,
20:58:46:01,0,0.99974  0.00069461    -0.01581   -0.016652,0.4187    0.043823    -0.11414,0.1098     -1.8102     -1.9102,1.0557     -1.0645    -0.54199,24.80715      121.0242      51.73105,2.03711     -2.47852      51.7311,-47,6.5,
20:58:46:33,0,0.99925   0.0011028   -0.013582   -0.036337,0.12195   -0.037323    -0.14343,0.1829     -1.5508     -4.1677,-1.7715     -4.6406       -3.25,24.80714      121.0242      51.76275,2.24023     -2.94922      51.7628,-59,5.75,
20:58:46:64,0,0.99915  -0.0083219   -0.016045    -0.03697,-0.021927     0.14001   -0.080444,-0.88534     -1.8726     -4.2236,0.81787     -3.9531    -0.95215,24.80714      121.0242      51.81074,2.60156     -3.47852      51.8107,-58,6,
20:58:46:95,0,0.99844   0.0013594   -0.024482   -0.050081,-0.056671   -0.027359    -0.22754,0.29638     -2.7944     -5.7502,3.3516     -0.3147     0.75537,24.80713      121.0242       51.8856,2.91797     -3.95117      51.8856,-69,4,
20:58:47:26,0,0.99735   -0.025188    0.007134   -0.067887,0.43994     0.64502    0.014175,-2.9357     0.61939     -7.8038,-0.5957     -2.7598     -8.3359,24.80713      121.0242      51.97977,3.25     -4.62891      51.9798,-68,4,
20:58:47:57,0,0.99872    -0.02218   0.0094524   -0.044533,-0.2981    -0.02124     0.11975,-2.5878     0.96864     -5.1281,0.52441     -2.8027     -1.4629,24.80712      121.0243      52.03531,3.5625     -5.06641      52.0353,-68,5,
20:58:47:88,0,0.99928  -0.0068892  -0.0053118   -0.036894,0.060333   -0.081116   -0.024994,-0.76649    -0.63739     -4.2246,0.96338    -0.69385      3.0566,24.80711      121.0243      52.10602,4.01563     -5.54297       52.106,-66,5.5,
20:58:48:19,0,0.9991 -0.00020749    -0.01636   -0.039054,0.31934    0.055145   -0.088074,0.049486     -1.8743     -4.4778,-0.56348     -3.9492   -0.016327,24.8071      121.0243      52.17441,4.46875     -6.16406      52.1744,-74,1.25,
20:58:48:51,0,0.99877  -0.0064913   -0.016533   -0.046208,-0.4563    -0.12988   -0.065308,-0.65578      -1.927     -5.2868,0.93066     -3.8711      0.5708,24.80709      121.0243      52.26895,4.79297     -6.58984       52.269,-68,5,
20:58:48:82,0,0.99877  -0.0010121  -0.0090268   -0.048822,0.26221     0.15808   -0.058136,-0.065342     -1.0388     -5.5965,-0.84961     -2.6211     0.44019,24.80707      121.0243      52.36766,5.18359     -7.30469      52.3677,-65,5.5,
20:58:49:13,0,0.9986   -0.012317  -0.0017243   -0.051509,0.24231     0.10828    -0.03038,-1.3995    -0.27001     -5.9023,0.57471      -4.125     0.73145,24.80706      121.0244      52.50664,5.52734     -7.82422      52.5066,-70,3.75,
20:58:49:44,0,0.99875   -0.013115   0.0087624   -0.047474,0.4917     0.32275    0.024933,-1.5491     0.93153     -5.4554,0.21545      1.9658   0.0026493,24.80704      121.0244      52.68365,5.92969      -8.3125      52.6837,-69,4,
20:58:49:75,0,0.99858    -0.03173   0.0048414   -0.042445,-0.61279   -0.036377    0.023483,-3.657     0.39967     -4.8806,1.6357     -3.6953      1.6348,1625753.25       121.0243988      52.826137543,6.3125     -8.61719      52.8261,-73,2.25,
20:58:50:06,0,0.99882   -0.025854   0.0068724   -0.040481,-0.28857    0.052673    0.050201,-2.9926     0.66667     -4.6591,3.9238     0.11469     -1.6357,24.80701      121.0244      52.99116,6.66406     -9.07813      52.9912,-73,2,
20:58:50:37,0,0.9992   -0.014731   -0.011901   -0.035139,-0.25317     0.10944   -0.010475,-1.6395     -1.4222     -4.0078,3.4492     -2.2734     0.89795,24.80699      121.0245      53.15718,7.03125     -9.47656      53.1572,-75,-3.5,
20:58:50:68,0,0.99911   0.0042264  -0.0044992   -0.041763,0.080017      0.1012   -0.035156,0.50543    -0.49489     -4.7894,-1.4268    -0.79395      1.4434,24.80697      121.0245      53.36043,7.23047       -9.875      53.3604,-72,2.25,
20:58:51:00,0,0.9994  -0.0027102 -6.8182e-05   -0.034089,0.38867    0.092834   -0.023773,-0.31012   -0.018396     -3.9071,0.18201      0.8833    -0.94287,24.80695      121.0245      53.60381,7.58984     -10.3047      53.6038,-74,1,
20:58:51:30,0,0.99936  -0.0097694  -0.0075949   -0.033506,-0.45386    0.012131   -0.020477,-1.0898    -0.90731     -3.8319,1.1816     -3.5508     0.30054,2021010.875  1.5275445946e-27      54.824813843,7.88672     -10.6406      54.8248,-72,0.25,
20:58:51:62,0,0.99934   -0.015282  -0.0029655   -0.032789,-0.12695      0.1355   0.0027275,-1.7392    -0.39702     -3.7525,2.8223     -1.2627      3.9434,24.80691      121.0246      54.06661,8.16406          -11      54.0666,-69,4.5,
20:58:51:92,0,0.99943   -0.015106   0.0089852   -0.029001,0.12952     0.26782    0.041504,-1.7604     0.97889     -3.3393,1.5801     0.86621     -1.6807,24.80688      121.0246      54.15276,8.45313     -11.3672      54.1528,-72,2,
20:58:52:24,0,0.99951   -0.018544   0.0023299   -0.025279,-1.1162     -0.6499    0.014801,-2.1312     0.21313     -2.9015,1.64063     -4.11719      10.1406,24.80686      121.0247      54.29899,8.58594     -11.5078       54.299,-75,-0.5,
20:58:52:55,0,0.99963  -0.0070904   0.0091383   -0.024738,0.30396  -0.0083542     0.91064,-0.83826      1.0267     -2.8428,-0.0045967     -0.2135      6.1523,24.80684      121.0247      54.50007,8.875     -11.9688      54.5001,-78,-7.25,
20:58:52:86,0,0.99974  -0.0052402   0.0036551   -0.021845,0.45142    -0.36084   -0.022293,-0.60951     0.40562     -2.5057,1.4365      4.2148     -0.2854,24.80681      121.0247      54.69613,9.1875     -12.2656      54.6961,-76,-1.5,
20:58:53:17,0,0.99972   -0.011159   0.0044381   -0.020466,0.17407    0.016724    0.015121,-1.289     0.48226      -2.351,-0.045349     -1.7129     0.92285,24.80679      121.0248      54.87803,9.45313     -12.5469       54.878,-73,2,
20:58:53:48,0,0.9996468424797058   -0.01606303080916405  -2.01732581092503e+31   -0.02042976021766663,0.31616     0.16541   -0.012657,180 -5.678363e-30           180,0.073486     -2.9453     0.81055,24.8068      60.5119  7.50483e-16,9.7421875          -2270  7.5048321e-16,-77,-10.25,
20:58:53:79,0,0.99967   -0.016668   0.0042146   -0.018881,-0.029251      0.1333   -0.014748,-1.9189     0.44674     -2.1715,1.3018    -0.42969     -4.8984,24.80673      121.0249      55.29997,9.9375     -13.0078         55.3,-77,-3.5,
20:58:54:10,0,0.99965   -0.015509    0.010361   -0.018582,-0.22034    0.018433    0.014206,-1.7993      1.1539     -2.1479,-0.18506    -0.74902     0.88672,24.80671      121.0249       55.5365,10.1406     -13.2813      55.5365,-77,-5.5,
20:58:54:42,0,0.99961   -0.017766    0.013646   -0.016952,0.14294   0.0071259   -0.011169,-2.0627      1.5287     -1.9706,0.11786    -0.11786     -1.6299,24.80668      121.0249      55.70648,10.3438     -13.5234      55.7065,-76,-2.5,
20:58:54:73,0,0.99957   -0.022271    0.012719   -0.014211,-0.14343     -0.1449    0.011795,-2.5733      1.4207      -1.661,2.5527      1.3047     -1.9404,24.8066  -1.5371e-27  4.43911e-18,10.5313     -13.6953  4.43911e-18,-78,-8.5,
20:58:55:04,0,0.99964   -0.016543    0.018137    -0.01067,-0.069092    0.033875    0.018784,-1.9188      2.0578     -1.2576,-0.12292      1.2246      2.0488,24.80662       121.025      56.16662,10.7969     -13.8516      56.1666,-75,-0.5,
113:48:61:37,0,0.99952   -0.025817    0.014578  -0.0084294,-0.20251    0.078918   -0.013344,-2.9736       1.645     -1.0091,3.2227      2.6563     -3.8047,24.80659      121.0251      56.36782,11.0078     -13.8516      56.3678,-77,-5.25,
20:58:55:66,0,0.9991804957389832   -0.03257191181182861 -4.748841580529887e+29  1.406451368874919e+36,-30320        46.71875          365.25,-3.86915e-05  2.653791e-36           180,3.6504    0.015549    0.058075,24.65666      121.0251      56.57244,11.0078     -13.5859      56.5724,-78,-7.25,
20:58:56:28,0,0.99053    -0.48599    0.037743   0.0022267,0.034912    0.072266     0.07135,-52.3166      3.61925     -1.52047,0.8291     -1.5684      1.3545,24.80651      121.0252      56.83393,10.7734     -13.0859      56.8339,-77,-5.25,
20:58:56:90,0,0.99933   -0.015855    0.029519    0.015062,0.16333     0.18188    0.029526,-1.7681      3.4097      1.6744,-0.41235      0.6123     -0.1897,24.80646      121.0253      56.99685,10.6406      -12.375      56.9968,-77,-6.75,
20:58:57:21,0,0.99961  -0.0082441     0.01942    0.018277,-0.10907     -0.2019  -0.0096283,-0.90439      2.2424      2.0773,0.16052      1.0293     -0.9375,24.80643      121.0253      57.00431,10.4219     -11.9766      57.0043,-77,-6.75,
20:58:57:52,0,0.99968   0.0032732    0.016075    0.019366,-0.08783    0.010117  -0.0065117,0.41085      1.8345      2.2262,-0.82373      1.5801    -0.25854,24.80641      121.0254      57.04629,10.1953     -11.6094      57.0463,-77,-3.75,
20:58:57:83,0,0.99974  -0.0020548    0.011878  1.4245e-07,0.00012183    -0.79541 -9.9957e-05,-0.23555      1.3614  -0.0027822,-0.079163   0.0024872  -0.0016031,-2.541053798880295e+36  7.749217778026846e+21  2.722290632870872e-32,0.0038738251           1836  2.7222906e-32,-78,-12.25,
20:58:58:14,0,0.99964   0.0074965    0.016459    0.019686,0.096375   -0.059662   0.0014257,0.89637      1.8688       2.271,-2      3.6953    -0.99365,-6346.427734375           141639188480             6131518464,-0.0033473968505859 -0.00012993812561035           6131518464,-78,-12.5,
20:58:58:46,0,0.99972  -0.0017282    0.013914    0.018939,0.021515     0.10181  -0.0059128,-0.16785      1.5979      2.1682,-1.4023      0.7373     -1.2236,24.80634      121.0255       56.9511,9.27344     -10.8125      56.9511,-78,-11.25,
20:58:59:39,0,0.99904   0.0032836    0.037361    0.022623,0.3833     0.26929    0.022385,0.47408      4.2726      2.6121,-4.3555      3.6328     -5.5547,24.8064      30.2564      56.6932,8.21875     -9.35938      56.6932,-78,-7.25,
20:58:59:70,0,0.99882   -0.013678    0.034781     0.03103,-0.0021172    -0.09967    0.029205,-1.4456      4.0328       3.508,-1.7432     0.49072     -1.7842,24.80626      121.0256       56.5887,7.92578     -8.96094      56.5887,-78,-8.25,
20:59:00:01,49156,3.279148431465582e+38 -3.729190092592308e+26  3.979263255679282e+21  -2.37702396910473e+38,-0.00097752   -0.014168 -7.5877e-05,-8.54293e-11 -6.19255e-11      -71.876,1.34375         640.5   -0.07635498,-932.6527099609375       -230956245975040      56.45353317260742,7.78125     -2.65625      56.4535,-78,-11.25,
20:59:01:26,0,0.99851   0.0039944    0.020042    0.050646,-0.058746     0.26392    0.035553,0.57382      2.2706      5.8187,-1.0479       2.291    -0.92139,24.80618      121.0258      55.83434,6.51953     -7.15234      55.8343,-78,-5,
20:59:01:57,0,0.99863  0.00058058    0.018428    0.048955,-0.057312     0.25098    0.012939,0.16993       2.106      5.6162,-1.1885      2.6895     -1.8643,24.80617      121.0258      55.69089,6.15625     -6.76953      55.6909,-77,-5.5,
20:59:01:08,80,7.911236064337141e+28  -0.005133312195539474  3.924182593456615e-12    0.05061493441462517,-0.0045586     0.10394    0.017349,-7.4354e-30   5.684e-39  7.3314e-29,-1.3125     0.56738    -0.18286,24.80615      121.0258      55.53902,5.74609     -6.38672       55.539,-77,-8,
115:63:66:17,20588,2.6615e-33  0.00017993    0.016426    0.051545,0.060486     0.10876   -0.017685,35.35093    -0.3631262      179.8843,-0.60303       2.709     0.36621,24.80614      121.0258      55.38351,5.33594     -5.95313      55.3835,-77,-10.5,
20:59:04:06,0,0.99885    0.010321    0.018845    0.042824,0.177    0.082214   0.0079041,1.2748      2.1068      4.9333,-2.4668      1.7402    -0.74902,24.80609      121.0259       54.5234,2.48828     -3.17773      54.5234,-77,-8.25,
20:63:20:84,4353,8.505246432665135e+37  -0.004628709517419338    0.01402247697114944  2.794203587560607e+27,-0.0066948   -0.010872      8.8125,-6.2363e-39  1.8893e-38  3.7646e-09,121.125  0.00091123581          -5472,4.071980085893269e-22  4.139585793127784e-36       -256071285342208,24.265625             11.3828125       -256071285342208,-79,-11.75,
20:59:05:61,0,0.99939     0.01081    0.011576    0.031097,0.072449    -0.12683    0.027924,1.2796      1.2873      3.5789,-1.7861      1.9043    -0.18201,-106541252608      121.0259628295898      53.94864273071289,0.793945     -1.42383      53.9486,-78,-9.25,
20:59:05:92,0,0.99928    0.021747    0.001017    0.031209,0.19763   -0.072083    0.010361,2.4946    0.038681      3.5786,-1.6221       2.166      1.1016,24.80607       121.026      53.86965,0.475586     -1.12207      53.8697,-77,-10.25,
20:59:06:23,0,0.99937    0.017022 -0.00078894    0.030988,-0.13855     -0.0021    0.013977,1.947    -0.15079      3.5494,-0.24902      1.9395      0.7002,24.80607       121.026      53.79722,0.231934    -0.600098      53.7972,-78,-9.5,
20:59:06:54,0,0.9995   0.0055062   0.0011606    0.031185,-0.1178   0.0051346   0.0078888,0.63481     0.11326      3.5748,-0.65332      1.5273    -0.59131,24.80606       121.026      53.69548,0.0792847    -0.398193      53.6955,-78,-10,
20:59:06:85,0,0.99951  -0.0036464   0.0029491    0.031078,0.054688   0.0059967   -0.005497,-0.40715     0.35076      3.5607,-0.23279    -0.82227     0.47607,24.80606       121.026       53.6039,0.12915    -0.510254      53.6039,-77,-10,
20:59:07:16,0,0.99951  -0.0016385   0.0028766    0.031112,0.013992    0.029617   0.0075912,-0.17741     0.33532      3.5653,-0.77979     0.37915     0.16052,24.80607       121.026      53.52409,0.0792847    -0.474854      53.5241,-77,-9.5,
20:59:07:48,0,0.99952 -0.00031418  0.00044359     0.03082,0.03479   0.0023308   -0.022034,-0.034418    0.051917      3.5323,0.71729    -0.41357    -0.96729,24.80607       121.026      53.46569,0.0610962    -0.431885      53.4657,-78,-9.5,
20:59:07:79,0,0.99952   0.0015802  -0.0011521    0.030799,0.019318   -0.046082    0.035828,0.17693    -0.13753      3.5297,-0.53955      0.5127    -0.60938,24.80607       121.026      53.40227,0.056427     -0.40625      53.4023,-77,-8.75,
20:59:08:10,0,0.99952  0.00098911  -0.0012525    0.030824,-0.011879    0.023041   -0.014984,0.10887    -0.14695      3.5326,0.026825   0.0039711      1.3535,24.80607       121.026      53.34712,0.0598755    -0.375977      53.3471,-78,-8.75,
20:59:08:41,0,0.99951   0.0023824  -0.0023595    0.030999,0.00017655    -0.04007  -0.0077019,0.26449    -0.27871      3.5522,0.42236     -1.6396    -0.93359,416176704      121.0259628296        53.296459198,0.0115891    -0.365967      53.2965,-77,-8.75,
20:59:08:72,0,0.99952   0.0020599  -0.0021409    0.030983,-0.027481    0.015007   -0.046509,0.22833    -0.25253      3.5505,1.082    -0.93311     -0.7373,24.80607       121.026      53.26185,-0.0026741    -0.339844      53.2619,-78,-9.75,
20:55:09:03,0,0.9663   0.0020389  -0.0023431    0.031131,0.031341553          -5856  -0.0015497208,0.2326    -0.28536        3.69,-1.30957031      1.07324219           62464,-7.30563198895859e-38      121.1388778686523  9.697698880104922e+30,-3.9296875       -0.2462158203125  9.697698880104922e+30,-78,-10.25,
20:59:09:34,32768,0.687  -0.0043482  -0.0013511    0.031163,-0.07489   -0.037323 -0.00018466,-0.73398    -0.19206      5.1956,1.542      -6.043     -1.0537,24.80607       121.026       53.1448,0.135254    -0.378418      53.1448,-77,-10,
20:59:09:65,0,0.99941   -0.014178    0.002628    0.031046,-0.14685    0.025803     0.01741,-1.6146     0.35141      3.5536,2.0684     -3.5352    -0.16553,24.80606       121.026      53.09024,0.487305    -0.724121      53.0902,-77,-8.25,
20:59:09:96,0,0.99916   -0.019362    0.008371    0.035175,0.016739    0.090881     0.11108,-2.184      1.0365      4.0128,-0.302     -3.5957     0.68311,24.80607       121.026       53.0956,0.821289     -1.20215      53.0956,-77,-6.5,
20:59:10:27,0,0.99855   -0.013427  0.00074468  4.3065e-26,0.020401    -0.15637    0.041931,-1.5408    0.085443  -0.0011489,1.3955     -1.3711     0.51367,24.80606       121.026      53.05907,1.25195     -1.64453      53.0591,-77,-10.25,
20:59:10:90,0,0.99877  -0.0083806  -0.0045221    0.048752,0.33911     0.13379   -0.047791,-0.98451    -0.47074      5.5931,-0.062286     -3.1738     -2.7617,24.80606       121.026      53.01867,2.20313      -2.5918      53.0187,-78,-10,
20:59:11:21,0,0.99894    -0.01945  -0.0099836    0.040493,-0.47852    -0.19165   -0.055634,-2.2738     -1.0526      4.6635,10.367188           8328     0.46899414,406422.375 -1.3797569196041e-37           1276407296,2.5390625         -2.958984375           1276407296,-78,-10.75,
20:59:11:52,0,0.99946   -0.006169    0.053456    0.032069,0.50977     0.27979    0.043549,-0.51158      6.1393      3.6482,-0.0308075   0.00554276          -23,-7.2461e-38      30.2565  5.42833e-10,2.78125          -900  5.428326e-10,-77,-11.25,
20:59:11:83,0,0.99914   -0.029064   0.0023769    0.029541,0.11469      0.1759 -0.00036669,-3.3215     0.37052      3.3763,-0.6377     -2.6836   -0.014702,24.80628       121.026      53.08213,3.28125     -3.87109      53.0821,-78,-11,
20:59:12:14,49796,-278645331460096  4.382353818169564e+37     0.0608936995267868   5.11856037607932e-31,0.0066032     0.29297    0.057281,-180 -1.012424e-60  1.592273e-37,-0.00015509     -0.8291     -1.6318,24.80603      -62.5052      197.5115,50.15625     -4.265625      197.5115,-78,-11.25,
21:56:07:254,54718,-1.054766536797499e-18  2.486688068826246e+32  0.0004570266173686832    3.3262553271644e+22,0.053925   -0.088257   -0.040344,180 -1.532805e-08   2.10607e-34,0.88379     0.84717      1.5645,812833      18448.64453 -4.421279626e-35,5.9102     -6.7656 -4.4213e-35,-78,-12,
20:59:16:81,0,0.9986091256141663  -0.003022009506821632  3.233376752200586e+29 -1.005928242468719e-18,0.172485352          -19136           -7480,-180  3.539092e-28          -180,-13888    -0.718261719      1.67285156,390.3923034667969 -3.296154730924935e+21 -1.810916567837245e-30,24.375        417.25 -1.810917e-30,-78,-12.25,
21:01:05:33,0,-0.020471   -0.012865  -0.0045136      0.9997,-0.007843   0.0012665      3.8145,-0.4870493      1.484506     -177.6601,0.40917969    -0.28344727           6768,24.806  6.57085e-18       53.179,0.0548400879           18784      53.1790314,-79,-11.25,
21:01:08:29,4096,-2.5197e-12  1.4602e-16  -0.0045281     0.99972,-0.10175     0.66895    0.010864,-0.5190216  1.291375e-12          -180,-1.6689     -2.5781      4.2539,24.80598      121.0264      53.32916,-0.0267792     0.227661      53.3292,-79,-11.25,
21:01:08:44,43680,1.1773e-21  -0.0059877  -0.0054944     0.98307,0.1032715   0.004905701        -660.5,-0.6404765     0.6979254      179.9961,-1.8623      -1.624      1.5576,28.05501      121.0264      53.35387,-0.28442383           2246      53.353867,-78,-10.5,
21:01:12:31,20480,-0.02961142733693123     -1.304742813110352 -1.417892399467725e+17     0.9997268319129944,1025     0.05065918   0.0062675476,-180  2.393143e-17           180,-0.67188    -0.21594     0.87207,5.508022e-15      121.0264      53.25404,0.0385742     0.963379       53.254,-78,-12.25,
21:01:11:103,51545,2.941186251720099e-18       2353846894460928  3.196688849553987e-19 -1.330452021045193e-17,0.00186252594           11248 -2.28881836e-05,180  6.476996e-31  1.556234e-32,-7932          -7320   -0.080749512,26635274240           539256487936      54.07285308837891,3.87891      4.47656      54.0729,-78,-12.25,
21:01:11:87,0,-0.004770245403051376 -1.341562551715469e-06  4.357043779520348e+36     0.9995665550231934,0.22827    0.025467    0.067017,180 -1.254589e-37          -180,3.6309      2.5469      1.6553,24.80604      121.0263      54.11712,-3.80664      4.72656      54.1171,-78,-9.25,
107:73:204:105,13622,-2.570983409796e-31           863411904  8.076711188031e-32    1.2322463153e-29,-0.000527381897     0.243408203          -14520,-180 -1.635431e-36  1.071937e-38,2.9766    0.016861   -0.004734,4.575910548887464e+20      121.0262756347656      54.20078277587891,-2.375      5.25781      54.2008,-78,-12,
21:01:18:08,0,-0.011586   -0.018101  -0.0092662     0.99973,-0.085327     0.12744   0.0017242,-1.038242       2.08638      -178.691,-4840    -0.14709473       10.96875,4.764840202595212e+29      121.0258255004883      55.02656173706055,-7.11328      7.71484      55.0266,-78,-8.75,
21:01:18:71,0,-0.014255   -0.014083  -0.0062843     0.99978,-0.056702    0.050964    0.020737,-0.6972628      1.623883     -178.3761,1.2119       1.333     -1.2969,6.16997      30.2564      55.0461,-7.28125      7.87891      55.0461,-78,-8,
21:01:20:57,0,0.014501  -0.0018461  -0.0092231     0.99985,-0.16113 -7.5102e-06   -0.057434,-1.059862     0.1961926      178.3363,-8800      3.6777344    -0.99316406,24.80642      121.0256      55.13744,-31     -8.47656      55.1374,-78,-12,
21:01:20:89,0,0.01681  -0.0088973    0.011327     0.99976,0.0578    -0.06192   -0.039185,1.280867      1.041183       178.085,0.66846     -2.8262     -1.7285,24.80644      121.0256      55.15696,-7.17188      8.38281       55.157,-79,-6.75,
21:01:21:19,0,0.018887   -0.011613   0.0060875     0.99974,-0.028046     0.13696   0.0084305,0.6724644      1.343649      177.8433,-0.1687     -0.5498      2.4023,24.80646      121.0255      55.15476,-7.04688      8.27344      55.1548,-78,-4,
21:01:21:82,0,0.026262  -0.0087919   0.0061945      0.9996,0.18115   0.0033894   -0.068176,0.6832172      1.025763      176.9962,-0.42188    -0.17346     0.21057,24.80649      121.0255      55.12558,-6.69922      7.90234      55.1256,-79,-6,
111:103:16:00,0,0.029815   -0.020198  -0.0020589     0.99935,-0.060455     0.27368    0.037628,-0.3050386      2.306586      176.5761,-0.45264    -0.18335      0.7832,24.80651      121.0255      55.09145,-6.59766      7.77734      55.0915,-76,0.25,
21:01:22:75,0,0.023655   -0.019068   -0.010052     0.99949,0.10699    -0.12708   0.0068893,-1.203905      2.157202      177.2658,0.47681    -0.35889     -2.2422,24.80654      121.0254      55.05036,-6.54297      7.79297      55.0504,-80,-7.25,
21:01:23:06,0,0.02351309731602669 -4.799691206574892e+36 -1.347497536051704e-14  1.246883759035861e-29,0.082336    -0.26001  -0.0091324,-180  2.976907e-64   3.21712e-49,0.47607   -0.044342     0.51758,24.010654       1424.406  2.9878874e-18,-6.5234     -7.8594  2.9879e-18,-78,-11.5,
21:01:23:37,0,0.023997   -0.010429  -0.0057147     0.99964,0.7876     0.27002   0.0045471,-0.68346       1.17906      177.2427,1.0107    -0.87305      3.0176,24.80657      121.0253      55.01729,-6.64844      7.92188      55.0173,-78,-5.25,
21:01:23:99,0,0.023703   0.0016147   -0.016465     0.99958,-1.041    -0.13525    0.081421,-1.881961    -0.2296721       177.287,-4.0391       3.373      2.5371,24.8066      121.0253      55.08633,-6.77344      7.95703      55.0863,-77,-1.5,
21:01:24:30,0,0.012476  -0.0077229    0.013823     0.99948,0.10657    0.040955   -0.013405,1.57353     0.9048838      178.5821,-1.9863    -0.87939     0.75977,24.80662      121.0253       55.0744,-6.83594      8.16406      55.0744,-77,-5.5,
21:01:24:61,0,0.030873  -0.0041325   0.0031928     0.99951,-0.521     -0.3689   -0.043854,0.3510858     0.4846169      176.4631,-2.0645      0.9751      1.4229,24.80663      121.0252        55.058,-6.76953       8.1875       55.058,-78,-6.25,
21:01:25:24,0,0.040484  -0.0061516   0.0054574     0.99915,-0.18713   -0.040436   -0.029129,0.5963607     0.7296578      175.3633,-0.43652     -2.1348     -4.5117,14.35264015197754  2.018946546164294e+36      55.08373641967773,-6.76953      8.51563      55.0837,-79,-10.25,
21:01:25:55,0,0.043436  -0.0054089  -0.0035715     0.99904,0.09967    -0.13965   -0.028946,-0.4358192     0.6014524      175.0186,-1.7666     -0.5835     0.62891,24.80669      121.0252      55.09829,-6.76953      8.66406      55.0983,-75,0.25,
21:01:25:85,0,0.045281   -0.011843   -0.003111      0.9989,0.16577     0.21484  0.00032949,-0.4176684      1.339622      174.8041,-0.49829    -0.52979    -0.80908,24.8067      121.0251      55.10944,-6.86328         8.75      55.1094,-78,-5.5,
21:01:26:16,0,0.045217   -0.019273  -0.0077048     0.99876,0.0477905     -16.5313     0.373047,-0.9824211      2.166347       174.797,0.65771     0.55762      1.2227,24.80672      121.0251      55.10358,-6.87891      8.84375      55.1036,-74,0.75,
21:01:26:48,0,0.043886   -0.019233  -0.0009669     0.99885,0.50977      0.1626  -0.0040054,-0.2075466      2.197088      174.9645,0.70508     -2.0156     0.46021,24.80674      121.0251      55.12407,-6.94141      8.92188      55.1241,-76,-1.75,
21:01:26:79,0,0.042984   -0.013489   -0.013092      0.9989,-0.00074482     0.14417    0.016541,-1.565793      1.479732      175.0518,1.007813     -1.508789           233,2.24265e-11      30.2563      55.1463,-7       8.9375      55.1463,-77,-7.5,
21:01:27:10,0,0.043894   -0.014157  -0.0028047     0.99893,0.12756  -0.0051956  -0.0030918,-0.392416      1.606628      174.9624,1.7764     0.81738    0.027786,24.80678       121.025      55.18404,-7.01172      9.05469       55.184,-75,1.25,
21:01:27:41,0,0.047338   -0.013678  -0.0024236     0.99878,0.16187     0.14624   -0.016571,-0.3517154       1.55252      174.5682,1.9531    -0.41895     -1.8594,24.8068       121.025      55.21371,-7.05078      9.13281      55.2137,-78,-8,
21:01:27:72,0,0.047159  -0.0027028   -0.034758     0.99828,-0.54736    0.068726 -0.00010586,-3.993934     0.1213478      174.5864,-3.4395      4.6719    -0.13672,24.80681       121.025      55.25684,-7.17969      9.28125      55.2568,-70,4.25,
21:01:28:03,0,0.050479   -0.014159    0.016144     0.99849,0.2915    -0.21106     -0.0401,1.766383      1.713648      174.2382,-1.7881     -6.2305     -3.8184,24.80683      121.0249      55.29145,-7.10156      9.21875      55.2915,-76,-1.25,
21:01:28:34,0,0.04763    -0.01592   -0.027369     0.99836,-0.77588    -0.39941   -0.033112,-3.221125       1.67212      174.4902,-2.4395      2.1836     -6.1055,24.80685      121.0249      55.26283,-7.20703      9.19531      55.2628,-75,0.25,
21:01:28:65,0,0.043567   -0.023516  -0.0058974     0.99876,0.95752   -0.055176   -0.011604,-0.79323      2.662925      174.9861,-0.0018225     0.36133      2.4219,24.80687      121.0249      55.28714,-7.27734      9.42969      55.2871,-74,2,
21:01:28:96,0,0.038382    -0.01178  -0.0043302     0.99918,-0.14111    -0.34839   0.0022278,-0.5477662      1.329868       175.594,0.73096      1.3086    -0.48218,24.80689      121.0248      55.28062,-7.27344       9.3125      55.2806,-74,1.75,
21:01:29:28,0,0.042273  -0.0062321 -0.00015834     0.99909,-0.066406     0.12634   -0.021667,-0.04832054     0.7127446       175.154,-0.08551    -0.57813      0.1239,24.80691      121.0248      55.31135,-7.40234        9.375      55.3114,-72,2.5,
21:01:29:58,0,0.045111   -0.012722  -0.0019279      0.9989,0.20337    0.096619   -0.024673,-0.2865374      1.446361      174.8248,0.22546      1.2285    -0.44897,24.80693      121.0248      55.33836,-7.41406      9.47656      55.3384,-73,2.75,
21:01:29:90,0,0.045027   -0.014516 -7.3273e-05     0.99888,-0.13916    -0.12274    0.017349,-0.08332131      1.661419      174.8368,1.0059    -0.39111    -0.73291,24.80695      121.0247      55.31178,-7.33203      9.49219      55.3118,-72,3.5,
21:01:30:21,0,0.046655  -0.0092802 -0.00060046     0.99887,-0.22424    -0.17126   -0.029617,-0.1183647       1.05908      174.6505,-1.165   -0.041138     0.59912,24.80697      121.0247      55.33185,-7.32813          9.5      55.3319,-75,1.75,
21:01:30:52,0,0.047712    -0.01458   0.0082472     0.99872,0.081726  -0.0020542  -0.0053139,0.8645568      1.713913      174.5426,1.8027     -2.4102    -0.61475,24.80699      121.0247      55.32778,-7.20703      9.39063      55.3278,-64,6,
21:01:30:83,0,0.048789   -0.016159   0.0043238     0.99867,0.37695     0.28516   0.0077858,0.4046866      1.873776      174.4128,0.20349     -1.4629     -1.4268,24.80701      121.0247      55.33803,-7.10156      9.23438       55.338,-71,3.5,
21:01:31:14,0,0.049816   -0.014328 -0.00051133     0.99866,-0.28003     0.09314    0.011444,-0.1403662      1.637003      174.2865,2.1855    0.081238     0.93018,24.80703      121.0246      55.31363,-6.92578      8.96875      55.3136,-68,5,
21:01:31:45,0,0.053402   -0.015675  -0.0030789     0.99845,0.23401     0.61279   -0.021622,-0.4484098      1.774874        173.87,1.5654     0.44434      -3.252,24.80704      121.0246      55.28579,-6.88672      8.82031      55.2858,-64,5.5,
21:01:31:76,0,0.050035   -0.020211   -0.017532     0.99839,-0.95654     0.19348    0.083496,-2.12374       2.21232      174.2209,-2.416      1.5244    -0.87842,24.80706      121.0246      55.29996,-6.70703      8.53125         55.3,-75,-0.25,
21:01:32:07,0,0.049168   -0.023267  -0.0049747     0.99851,-0.1109     0.22546    0.060059,-0.7010626      2.635114      174.3458,0.29712    -0.94189     0.35889,24.80708      121.0246      55.26616,-6.53125      8.35156      55.2662,-70,3.25,
21:01:32:39,0,0.052048   -0.021657   0.0040082      0.9984,-0.050049    -0.24841   0.0015984,0.3297166      2.502413      174.0387,-0.27417     -3.7754   -0.029633,24.8071      121.0245      55.21486,-6.31641      8.11719      55.2149,-68,5,
21:01:32:70,0,0.047998   -0.016275   0.0026977     0.99871,0.28564     0.22009    0.036743,0.2193391       1.87779      174.5005,-0.32715      -1.043    -0.29419,24.80712      121.0245      55.22077,-6.21875      7.97656      55.2208,-68,4,
21:01:33:01,0,0.052301  -0.0047863   0.0020714     0.99862,-0.23914     0.12732   0.0038452,0.2083561     0.5601399       174.005,1.9229       1.251     -0.1059,24.80713      121.0245      55.15246,-6.07031      7.71875      55.1525,-63,6,
21:01:33:32,0,0.059652 -0.00089276    0.011029     0.99816,-0.049591    0.097046   -0.026611,1.255513     0.1775052      173.1618,3.1328    -0.49683    -0.38281,24.80715      121.0244      55.10397,-5.81641      7.50781       55.104,-61,6.5,
21:01:33:63,0,0.066492   -0.002787     0.01206     0.99771,0.055725     0.15698    -0.01918,1.357767     0.4105294      172.3793,3.8242    0.020859     -1.4209,24.80717      121.0244      55.03125,-5.54688      7.30859      55.0312,-59,6,
21:01:33:94,0,0.074662   0.0045884   0.0038977     0.99719,-0.073914     0.18921   -0.034302,0.4846729    -0.4909706      171.4342,-0.43677    -0.17346     -0.3501,24.80718      121.0244       55.0008,-5.39844      7.16016      55.0008,-62,5.5,
21:01:34:25,0,0.084393   0.0038177     0.01828     0.99626,-0.00079536   -0.014542   -0.046967,2.12433    -0.2590644      170.3113,-0.0035477     -1.9648     0.85352,24.8072      121.0244      55.02074,-5.10156      6.98438      55.0207,-67,4.75,
21:01:34:56,0,0.091169    0.010754    0.018175     0.99561,-0.015213     0.10895   -0.035095,2.186798     -1.037111      169.5161,0.46069    -0.67334     0.15283,24.80721      121.0244      55.00077,-4.83984      6.80078      55.0008,-55,5.75,
21:01:34:87,0,0.10664    0.013223      0.0269     0.99385,0.094055   -0.028427      -0.125,3.227461     -1.177291      167.7182,0.34814     -4.2461      -4.375,24.80723      121.0243      54.95613,-4.52344      6.57031      54.9561,-60,6.25,
21:01:35:19,0,0.11764    0.015041    0.024607     0.99264,0.15259    0.048035   -0.064087,3.003946     -1.379283      166.4463,0.62646     -1.6797     0.76563,24.80724      121.0243      54.91826,-4.18359      6.46875      54.9183,-54,6,
21:01:35:50,0,0.13219    0.022071    0.020389     0.99077,-0.32251    0.047394   -0.086975,2.652065     -2.197528      164.7503,-0.32031     0.53906    -0.99561,24.80726      121.0243       54.9098,-3.86328      6.32422      54.9098,-53,6,
21:01:35:80,0,0.15128    0.020878    0.024992     0.98796,-0.021011    0.031982   -0.088623,3.194788     -1.930763      162.5352,-0.40698     -3.0586      1.5225,24.80727      121.0243       54.8357,-3.53125      6.09375      54.8357,-53,6.25,
21:01:36:12,0,0.16822    0.019305   0.0086596     0.98552,0.28101   -0.039093    -0.15845,1.351044     -2.013643      160.6032,1.9209      1.3486     0.27173,24.80729      121.0243      54.79063,-3.20117      5.95313      54.7906,-56,6,
21:01:36:42,0,0.18086    0.012272    0.022764     0.98317,0.068909    -0.25952   -0.081787,2.820538    -0.9108576      159.1313,-0.40625     -2.0879      3.9609,24.8073      121.0243      54.70684,-2.84766      5.66016      54.7068,-52,6,
21:01:36:74,0,0.19081    0.015007    0.016086     0.98138,-0.34131    -0.15027     -0.1015,2.138246     -1.336076      157.9695,-1.791     -1.4385      3.4492,24.80732      121.0243      54.70493,-2.61133      5.42188      54.7049,-55,5.75,
21:01:37:05,0,0.20154     0.01125    0.019748     0.97922,0.20862     0.29639   -0.020248,2.476716    -0.8063331      156.7222,0.39551     -0.9502    -0.36328,24.80733      121.0242      54.65976,-2.375      5.26563      54.6598,-57,6.5,
21:01:37:36,0,0.21233    0.012404    0.015378       0.977,-0.097839   -0.022247   -0.074707,2.024218     -1.014607      155.4597,3.082     0.25659      5.0039,24.80734      121.0242      54.59711,-2.06445      4.80469      54.5971,-61,6.25,
21:01:37:67,0,0.22889    0.018731    0.027923     0.97287,1.0684    0.019394    -0.14685,3.607646     -1.355975      153.4786,2.0781     -1.4951     -2.5254,24.80735      121.0242      54.57029,-1.74121      4.73047      54.5703,-61,6,
21:01:37:98,0,0.24601    0.018893   0.0063018     0.96906,-0.15173    -0.18933    -0.12634,1.233198     -1.920753      151.4908,1.3916     -1.1016     -0.7251,24.80737      121.0242      54.61845,-1.5166      4.25391      54.6184,-58,6.75,
21:01:38:29,0,0.26884    0.018048   0.0083972     0.96298,0.21252    -0.24402    -0.21985,1.483485      -1.73319      148.7802,2.1152    -0.91504      2.2051,24.80738      121.0242       54.6001,-1.2793      4.05469      54.6001,-55,6.25,
21:01:38:60,0,0.29303   0.0084684   0.0059559     0.95605,-0.15869    -0.22681    -0.14587,0.9369783    -0.7277757      145.9131,-1.1875      0.5459      3.6758,24.80739      121.0242      54.59991,-1.12207      4.01563      54.5999,-62,5.75,
21:01:38:91,0,0.30216   -0.009175    0.015401     0.95309,-0.18042    0.052917    -0.01857,1.36493      1.535484      144.8376,-1.6953     -4.4492     -0.5293,24.8074      121.0242      54.59402,-1.02637      3.63672       54.594,-59,6.5,
21:01:39:23,0,0.30814   -0.023252    0.011179     0.95099,0.10052     0.15491   -0.030777,0.3977469      2.929912      144.1038,1.3447   -0.093811   -0.063782,24.80741      121.0242      54.62569,-0.89502       3.2207      54.6257,-64,5.5,
21:01:39:53,0,0.30598   -0.039699  -0.0064704     0.95119,-0.27661    0.065308    0.062195,-2.103071      4.103702      144.2602,-0.32739    -0.85498    -0.71533,24.80742      121.0242       54.6428,-0.902344      2.69336      54.6428,-61,6.5,
21:01:39:85,0,0.28727   -0.061072  -0.0054685     0.95589,-0.28857    0.061676     0.24573,-2.627306       6.52364      146.3966,-0.84619     -1.7852    -0.53174,24.80742      121.0242      54.63342,-0.942871         2.25      54.6334,-65,5,
21:01:40:16,0,0.23595   -0.069734  -0.0066978     0.96924,0.072327   0.0014334     0.44946,-2.653482      7.586143      152.4608,0.7876      1.1211    -0.47876,24.80743      121.0242      54.63725,-0.912109      1.95898      54.6373,-60,6,
21:01:40:47,0,0.15646     -0.0645  -0.0080196     0.98554,0.17322    0.037964     0.52246,-2.078767      7.159127      161.8285,-0.60938     -3.6523    -0.53564,24.80743      121.0242      54.65496,-1.01172      1.68066       54.655,-61,6,
21:01:40:78,0,0.08074   -0.062083   -0.014451      0.9947,-0.13525    -0.18347     0.52979,-2.238622      6.959851      170.5827,-1.3574     0.47217      0.7876,24.80744      121.0242      54.63907,-1.0166       1.2666      54.6391,-62,6,
21:01:41:09,0,-0.010468   -0.055075   -0.014372     0.99832,-0.15186    0.026443     0.58008,-1.587983      6.330624     -178.8863,0.31152    -0.24194     0.56885,24.80744      121.0242      54.61561,-1.12891       1.0166      54.6156,-64,5.75,
21:01:41:40,0,-0.11063   -0.042558   -0.013176     0.99286,0.047821    -0.15466     0.70557,-0.9632633       5.01539     -167.3266,0.7334     -0.9126    -0.17444,24.80744      121.0242      54.61006,-1.05762     0.948242      54.6101,-59,6,
21:01:41:71,0,-0.2084   -0.023449  0.00045058     0.97776,0.059326    -0.20239     0.61084,0.6111253      2.617484      -155.922,-1.04      1.0244    0.080383,24.80744      121.0242      54.65308,-0.990234     0.758789      54.6531,-65,5.25,
21:01:42:03,0,-0.29074  -0.0021028    0.024193     0.95649,-0.061737    -0.19165     0.43677,2.72296    -0.5755787     -146.1983,1.3945     -1.3408     0.41455,24.80745      121.0242      54.64688,-0.789551     0.552246      54.6469,-64,6,
21:01:42:33,0,-0.32552   0.0024282    0.039511     0.94471,-0.0039368    0.018311    0.099792,4.192327     -1.736942     -142.0387,1.7803    -0.23254     0.91357,24.80745      121.0242      54.64575,-0.437012     0.245728      54.6458,-65,5.5,
21:01:42:65,0,-0.32004 -0.00066478    0.026029     0.94705,-0.014305     0.14905    -0.11127,2.8507    -0.8824912     -142.6781,0.57373     -1.0713    0.070862,24.80745      121.0242      54.65075,-0.172119    0.0327759      54.6507,-63,6.25,
21:01:42:96,0,-0.30558   -0.010033   0.0044632      0.9521,-0.091003    0.083313   -0.075317,0.8384038     0.9383595     -144.4049,-0.15076     0.24121      0.6377,24.80745      121.0242      54.71786,-0.00997162    0.0353394      54.7179,-62,6.25,
21:01:43:27,0,-0.30217    -0.01913  -0.0070464     0.95304,-0.10559     0.11523   0.0065994,-0.1072293      2.333803     -144.8185,-0.11609     -1.0527   -0.049805,24.80745      121.0242      54.70913,0.121094   -0.0288391      54.7091,-62,6.25,
21:01:43:58,0,-0.30661    -0.02872   -0.019855      0.9512,0.16821    0.077271    0.062347,-1.157782      3.830944     -144.3065,0.45752    -0.24792     0.50195,24.80745      121.0242      54.72435,0.216431    0.0897217      54.7243,-62,5.75,
21:01:43:89,0,-0.31412   -0.021086   -0.017286     0.94899,0.10272   -0.049194    0.067993,-1.12232      2.916473     -143.3986,0.47363    -0.42651    -0.64258,24.80745      121.0242       54.6921,0.264404     0.198242      54.6921,-63,5.5,
21:01:44:20,0,-0.32075    -0.01351  -0.0057889     0.94705,-0.093201   -0.025589    0.050964,-0.1317561      1.679125     -142.5818,-0.47168    0.093201     0.55566,24.80745      121.0242      54.72281,0.270508     0.171753      54.7228,-67,5.25,
21:01:44:51,0,-0.32711   -0.011282  -0.0025161     0.94492,-0.053375   -0.024414    0.039368,0.1504815      1.316009     -141.8093,0.17371    -0.41553     0.16528,24.80745      121.0242      54.71667,0.275879     0.117004      54.7167,-68,5.5,
21:01:44:82,0,-0.33504   -0.018501   -0.016721     0.94187,-0.16724     0.17175    0.050842,-1.095663      2.639693     -140.8621,-0.22131   -0.047119     0.39917,24.80745      121.0242      54.69204,0.282471  0.000480652       54.692,-64,5.5,
21:01:45:14,0,-0.34337   -0.025995   -0.030091     0.93836,-0.19678   0.0018625     0.03183,-2.218731      3.982393     -139.8794,0.072327     0.71045     0.46411,24.80745      121.0242      54.66872,0.36499     0.110901      54.6687,-63,6,
21:01:45:44,0,-0.34954   -0.025825   -0.024931     0.93623,0.24817    0.018753    0.031128,-1.644122        3.7719     -139.1078,0.94336     0.45483    -0.44043,24.80745      121.0242      54.71755,0.338623     0.249023      54.7176,-65,5,
21:01:45:75,0,-0.35512   -0.020175   -0.022994     0.93432,0.064331  -0.0050888    0.032837,-1.643572      3.097226      -138.423,-0.42358      0.9541      1.7256,24.80745      121.0242       54.7152,0.343994     0.223389      54.7152,-68,5.25,
21:01:46:07,0,-0.35881   -0.016471    -0.01726      0.9331,-0.022781   -0.072144    0.014412,-1.169427      2.471634     -137.9581,-0.46216     0.42261    -0.12903,24.80745      121.0242       54.7097,0.31958     0.263916      54.7097,-64,5.75,
21:01:46:38,0,-0.36018   -0.014358   -0.015022     0.93265,0.085815    0.011559  -0.0051651,-1.013635      2.155073     -137.7867,-0.51074    0.051849      0.8374,24.80745      121.0242      54.70467,0.204956     0.228394      54.7047,-63,5.5,
21:01:46:69,0,-0.36042   -0.015508   -0.016177     0.93252,-0.047821    -0.01857  -0.0045433,-1.089166      2.325962      -137.759,-0.054474    -0.15674    -0.76172,24.80745      121.0242       54.7115,0.223633     0.262695      54.7115,-62,6,
21:01:47:00,0,-0.3605   -0.014529   -0.012832     0.93256,0.027359   0.0047417   0.0082932,-0.771664      2.083141     -137.7442,0.40967    -0.28052   -0.069519,24.80746      121.0242      54.77288,0.231689     0.246216      54.7729,-63,5.75,
21:01:47:31,0,-0.36042   -0.015576    -0.01445     0.93255,0.003212    0.010391  -0.0032749,-0.901602       2.26187     -137.7554,-0.39722     0.40796     -1.1016,24.80746      121.0242      54.76335,0.250488     0.225586      54.7633,-65,5.25,
21:01:47:62,0,-0.36056   -0.017601   -0.017305     0.93241,0.010017   0.0038261  -0.0011368,-1.12299      2.596447     -137.7433,0.36841     0.36963    -0.39746,24.80746      121.0242      54.77497,0.264404     0.240356       54.775,-66,5.75,
21:01:47:93,0,-0.3615    -0.01847   -0.019895     0.93198,0.0098801   -0.013756    0.042114,-1.361297      2.797825     -137.6318,0.34204     0.50586    -0.36597,24.80746      121.0242      54.77174,0.29834     0.256348      54.7717,-65,5.25,
21:01:48:24,0,-0.37055   -0.013528   -0.010112     0.92866,0.046783   -0.081177    0.063538,-0.5019818      1.869337     -136.5029,0.24768    -0.83691     0.61523,24.80746      121.0242      54.83227,0.30835     0.306641      54.8323,-65,5.25,
21:01:48:55,0,-0.37353   -0.010582  -0.0050126     0.92755,0.034424   -0.018784  -0.0057678,-0.0798485      1.339462     -136.1313,0.0017614     0.77441     0.44946,24.80746      121.0242      54.83261,0.316895     0.251465      54.8326,-64,5.75,
21:01:48:87,0,-0.3736  -0.0087052  -0.0023332     0.92754,-0.0065079  -0.0056801    0.011581,0.1247072      1.025206      -136.121,-0.31274   -0.095703    -0.16516,24.80746      121.0242      54.81487,0.318115     0.239258      54.8149,-64,5.5,
21:01:49:17,0,-0.37393   -0.007745 -0.00066985     0.92743,0.028641    -0.03125   0.0055847,0.2607062     0.8518395     -136.0808,0.46753     0.58545     -0.7041,24.80746      121.0242       54.8366,0.33374     0.243896      54.8366,-65,5.25,
21:01:49:49,0,-0.37399  -0.0089994 -0.00049942     0.92739,-0.0014648    0.072083  0.00052261,0.3326531     0.9778266     -136.0718,0.54883     0.36133     0.28394,24.80746      121.0242      54.90271,0.326904     0.199097      54.9027,-64,5.5,
21:01:49:80,0,-0.37427   -0.011452  -0.0051751     0.92724,0.020096    0.036926    0.011543,-0.05875977      1.438868     -136.0389,0.35474     0.52881      2.1602,24.80746      121.0242      54.89798,0.345215     0.208374       54.898,-65,6.75,
21:01:50:11,0,-0.37417   -0.012379  -0.0077001     0.92725,0.018646   -0.027649  0.00043488,-0.2875213       1.64571     -136.0532,-0.37036     0.47583     0.32593,24.80746      121.0242      54.89116,0.349365     0.217285      54.8912,-64,5.75,
21:01:50:42,0,-0.37409   -0.012422  -0.0083309     0.92727,0.030396  -0.0070114  -0.0061836,-0.3528709      1.677299     -136.0641,-0.74072     0.29883     0.41138,24.80746      121.0242      54.88623,0.363037      0.23877      54.8862,-65,5,
21:01:50:73,0,-0.37473   -0.011731  -0.0047142     0.92705,0.090149    0.053406    0.003828,0.002937458      1.448764     -135.9808,0.36279    -0.48804    -0.50928,24.80746      121.0242      54.94415,0.360352     0.239624      54.9442,-67,5.5,
21:01:51:04,0,-0.37457   -0.013274  -0.0063452     0.92708,-0.0018559    0.018417  -0.0034733,-0.1043774      1.682788     -136.0012,0.08783      1.5244     0.99365,24.80746      121.0242      54.96043,0.37085     0.196045      54.9604,-67,5.25,
21:01:51:35,0,-0.37486   -0.014659    -0.01016     0.92691,0.018127  -1.508e-05    0.005394,-0.4496878      1.993859     -135.9692,1.7627     0.42578     -1.1055,24.80746      121.0242      54.94692,0.384521     0.219971      54.9469,-68,5,
21:01:51:66,0,-0.37499   -0.014409    -0.01022     0.92686,0.013664     0.02478    0.013374,-0.466633      1.969936     -135.9529,0.89648     0.53076    0.044464,24.80746      121.0242      54.95317,0.379639     0.223633      54.9532,-66,6,
21:01:51:98,0,-0.37538   -0.014081  -0.0084788     0.92672,-0.0029469   0.0029564  -0.0030842,-0.294835      1.860425     -135.9024,0.12659     -0.1449       2.084,24.80746      121.0242      54.98627,0.37207     0.216553      54.9863,-66,6.5,
21:01:52:29,0,-0.37524   -0.013192  -0.0075072      0.9268,0.039886  -0.0077629 -0.00016677,-0.2301528      1.724091     -135.9193,-0.8457    0.091919     0.51563,24.80746      121.0242      54.98203,0.375732     0.211548       54.982,-64,5.5,
21:01:52:60,0,-0.3754   -0.013411  -0.0070437     0.92674,0.029419    -0.00914   0.0079727,-0.1711783       1.72747     -135.8993,-0.15894     0.53467     0.46387,24.80746      121.0242      55.00382,0.387939     0.216797      55.0038,-64,5.5,
21:01:52:91,0,-0.37564   -0.012628  -0.0064595     0.92666,-0.013428    0.006031  -0.0011835,-0.1424031      1.619191     -135.8701,1.6592    -0.62793     -1.5166,24.80746      121.0242      55.00106,0.394531     0.204956      55.0011,-65,5,
21:01:53:22,0,-0.37612   -0.013438  -0.0062075     0.92645,-0.011032    0.044647   0.0027199,-0.07984126      1.694469      -135.809,0.22839      0.3728    -0.89355,24.80746      121.0242      55.05301,0.355225      0.18335       55.053,-65,6,
21:01:53:53,0,-0.28224   -0.013826  -0.0063179      0.9265,-0.0044289   -0.002882   0.0023403,-0.2384317      1.782476     -146.1191,-0.025879   -0.083313    -0.37354,25.80648      121.0515      55.05339,0.427002      0.18103      55.0534,-64,1.75,
21:01:53:84,0,-0.3761   -0.013254  -0.0055549     0.92647,-0.034393   -0.026184  -0.0081558,-0.01854552      1.646704      -135.811,-1.1963     0.12708     0.65723,24.80746      121.0242      55.03398,0.362061     0.202026       55.034,-64,5.75,
21:01:54:15,0,-0.37631   -0.011605  -0.0041132     0.92641,0.055115   -0.019531  -0.0015621,0.06381495      1.409537     -135.7851,0.17773     0.21558   -0.015251,24.80746      121.0242      55.03389,0.373047     0.201172      55.0339,-63,5.75,
21:01:54:46,0,-0.37665   -0.011382  -0.0041567     0.92628,0.00093937   -0.033508   0.0033588,0.05005184      1.387643     -135.7434,-0.90674     0.11029     0.15405,24.80746      121.0242      55.07109,0.349365     0.178467      55.0711,-64,5.75,
21:01:54:78,0,-0.37676   -0.011715  -0.0040362     0.92623,0.00078917  0.00014269    0.012161,0.07740428      1.417803      -135.729,0.81592   -0.049103     0.31006,24.80746      121.0242         55.05,0.358398     0.160278        55.05,-65,5.5,
21:01:55:08,0,-0.37696   -0.012698  -0.0042956     0.92613,-0.0027695    0.010666  0.00014222,0.09264933      1.533297      -135.703,0.19885    -0.76172    -0.98682,24.80746      121.0242      55.03718,0.359619     0.151611      55.0372,-65,5.5,
21:01:55:39,0,-0.37697   -0.012861  -0.0049807     0.92612,0.015717   -0.021759    0.010178,0.02699352      1.580244     -135.7031,-0.047516      0.3186    -0.14148,24.80746      121.0242      55.03828,0.352783     0.158936      55.0383,-66,5.25,
21:01:55:71,0,-0.37736   -0.013278  -0.0055752     0.92596,0.030655    0.038879   0.0079422,-0.01740739       1.65018      -135.655,0.60693    -0.55225    -0.88477,24.80746      121.0242      55.09692,0.34375     0.141479      55.0969,-67,5.5,
21:01:56:01,0,-0.37746   -0.012997  -0.0049572     0.92592,-0.037964   -0.019653   0.0048714,0.03621105      1.593647     -135.6419,-1.0645    -0.46631     0.50488,24.80746      121.0242       55.1278,0.327637     0.150146      55.1278,-64,6,
21:01:56:33,0,-0.37752   -0.012555  -0.0038876     0.92591,-0.051453  -0.0034809  -0.0026741,0.1306799      1.500401     -135.6338,0.9209    -0.71924    -0.90088,24.80746      121.0242      55.14312,0.338623     0.141602      55.1431,-64,5.75,
21:01:56:64,0,-0.37757   -0.012658  -0.0038586     0.92589,0.0071335    0.015747    0.023331,0.1383144      1.510091     -135.6275,0.91016   -0.010689     0.28174,24.80746      121.0242      55.15387,0.32666     0.134277      55.1539,-66,5.25,
21:01:56:95,0,-0.37797   -0.013277   -0.004198     0.92571,0.02832  -0.0093918    0.014282,0.1297603      1.590406     -135.5782,-0.038483     0.80908     0.46411,24.80746      121.0242      55.21869,0.299072     0.125366      55.2187,-65,5.75,
21:01:57:26,0,-0.3781    -0.01272  -0.0037985     0.92567,-0.022629   -0.025635  4.0591e-05,0.1482508      1.513999     -135.5618,-1.1465     0.25439    -0.23254,24.80746      121.0242      55.22393,0.291992     0.126709      55.2239,-66,5.25,
21:01:57:57,0,-0.37811   -0.012388   -0.003686     0.92567,0.013382  -0.0074081  -0.0079956,0.1458336      1.473965      -135.561,-0.81494     0.17664     0.51514,24.80746      121.0242      55.21484,0.296143     0.118652      55.2148,-65,5.25,
21:01:57:88,0,-0.3782   -0.013145  -0.0039847     0.92562,-0.0096817   0.0048332 -0.00037265,0.147076      1.567134     -135.5492,-0.66406     0.34546    -0.88818,24.80746      121.0242      55.22002,0.29834     0.114746        55.22,-66,5.5,
21:01:58:19,0,-0.37838   -0.012878  -0.0043228     0.92555,0.038574   -0.019714   0.0084457,0.09994388      1.553462     -135.5272,1.2764     0.17944     -1.0625,24.80746      121.0242      55.21824,0.294434     0.116455      55.2182,-66,5.25,
21:01:58:50,0,-0.37863   -0.013113  -0.0038579     0.92545,0.011833    0.019699  0.00037217,0.1598749      1.558188     -135.4961,-0.1416    -0.76465     -1.1787,24.80746      121.0242      55.26822,0.279541     0.102173      55.2682,-64,6,
21:01:58:82,0,-0.3786   -0.013059  -0.0032029     0.92546,-0.041595   -0.014061   0.0044556,0.2269873      1.524094     -135.4987,-0.84766    -0.27295      1.0498,24.80746      121.0242      55.25854,0.269531     0.109741      55.2585,-65,5.25,
21:01:59:12,0,-0.37856   -0.012934  -0.0029308     0.92548,0.028    0.029083    -0.00457,0.2503554      1.499042     -135.5037,0.089172     0.51953    -0.60352,24.80746      121.0242      55.27227,0.271973     0.107788      55.2723,-65,5.75,
21:01:59:43,0,-0.37865   -0.013199  -0.0031512     0.92544,0.024445     0.01532   0.0079269,0.2386115      1.536645     -135.4925,0.61426   -0.059601      2.1055,24.80746      121.0242      55.27611,0.271729     0.101257      55.2761,-65,5.75,
21:01:59:75,0,-0.37875   -0.013061  -0.0033246      0.9254,-0.019562  -0.0083313   0.0034237,0.2143849      1.529476     -135.4803,1.5176    -0.50391    -0.72803,24.80746      121.0242        55.301,0.26123    0.0893555       55.301,-64,5.75,
21:02:00:06,0,-0.37873   -0.013177  -0.0032568     0.92541,0.010414    0.027054    0.011185,0.2265683      1.538843     -135.4832,0.88281    -0.21399    -0.16943,24.80746      121.0242      55.29617,0.259766    0.0952759      55.2962,-64,5.5,
21:02:00:37,0,-0.37881   -0.013025  -0.0030738     0.92538,0.044373   -0.026489   0.0089188,0.2395435      1.514835     -135.4729,0.75342    0.038208    -0.25049,24.80746      121.0242      55.29504,0.252441    0.0969238       55.295,-64,5.75,
21:02:00:68,0,-0.37882   -0.013486  -0.0032211     0.92537,-0.038025    0.030533  -0.0070496,0.2439751      1.570116     -135.4709,0.00064087    -0.49316     -1.2158,24.80746      121.0242       55.2949,0.242554     0.078125      55.2949,-62,6,
21:02:00:99,0,-0.37881   -0.014504  -0.0047398     0.92535,-0.025055   0.0050316   0.0021477,0.1270661      1.744009     -135.4729,-0.36353    -0.23206    0.018188,24.80746      121.0242       55.3297,0.220337    0.0686646      55.3297,-66,5.25,
21:02:01:30,0,-0.37894   -0.014875  -0.0048973     0.92529,0.051849   0.0020599    0.010826,0.1267274      1.790175     -135.4568,0.093811      0.7207      1.6855,24.80746      121.0242      55.32146,0.22168    0.0849609      55.3215,-64,5.25,
21:02:01:61,0,-0.37899   -0.014265  -0.0045153     0.92528,-0.018509   -0.013054   0.0074425,0.1408101       1.70883     -135.4505,1.4766    -0.39771     -1.2207,24.80746      121.0242      55.31442,0.217285    0.0755005      55.3144,-64,6,
21:02:01:92,0,-0.37895   -0.013808  -0.0039487     0.92531,0.0041008   0.0018969   0.0068092,0.1809734      1.635736     -135.4552,0.35742     0.33252    0.054413,24.80746      121.0242      55.30521,0.209473    0.0849609      55.3052,-66,5.75,
21:02:02:23,0,-0.37911   -0.013882  -0.0031998     0.92524,-0.022461   0.0038376   0.0010557,0.2639212      1.611044     -135.4339,0.055817     -0.5249      1.5332,24.80746      121.0242      55.33062,0.191772    0.0727539      55.3306,-62,6,
21:02:02:55,0,-0.37922   -0.013014  -0.0016869     0.92521,0.012299    0.013245   0.0080948,0.3868026      1.453207     -135.4199,0.73535     -1.0547     -1.0732,24.80746      121.0242      55.31543,0.202637    0.0698242      55.3154,-65,5.5,
21:02:02:85,0,-0.37913   -0.012956  -0.0020088     0.92525,0.030807  -0.0075951  -0.0047112,0.3500187      1.461115     -135.4316,0.224     0.84814      -1.166,24.80746      121.0242      55.31287,0.19043    0.0656128      55.3129,-64,5.5,
21:02:03:17,0,-0.37897    -0.01345  -0.0029347     0.92531,0.027023   -0.016754    0.004673,0.2730273      1.553785     -135.4518,0.074585    0.054779     0.86816,24.80746      121.0242      55.31089,0.183838    0.0631714      55.3109,-64,5.75,
21:02:03:48,0,-0.37907   -0.013945  -0.0027349     0.92526,0.0082779  -0.0024395   0.0005312,0.3158726      1.597504     -135.4391,-0.35596     0.68945   -0.077209,24.80746      121.0242      55.34297,0.166748    0.0628052       55.343,-65,5.5,
21:02:03:79,0,-0.37903   -0.013435  -0.0026982     0.92528,0.0017099 -0.00030684  -0.0070496,0.2975266      1.541854     -135.4449,1.2471    -0.30566     -1.3389,24.80746      121.0242      55.33908,0.168091    0.0605469      55.3391,-65,5.25,
21:02:04:10,0,-0.37897   -0.013507  -0.0023559     0.92531,0.017075    0.032501  -0.0029335,0.336887      1.534664     -135.4512,0.071472    -0.85986     -1.1914,24.80746      121.0242      55.33907,0.168335    0.0531921      55.3391,-66,5.25,
21:02:04:41,0,-0.37893   -0.013507  -0.0020851     0.92532,-0.044525   0.0035629    0.001112,0.3655347      1.522898     -135.4559,-0.67188    -0.44141      1.0264,24.80746      121.0242      55.33214,0.154419    0.0541382      55.3321,-67,5.5,
21:02:04:72,0,-0.37893   -0.013587  -0.0027257     0.92532,-0.019867   0.0086746   0.0038414,0.3010727      1.559224     -135.4562,0.16724     0.53125     0.13159,24.80746      121.0242      55.34402,0.137695    0.0422058       55.344,-70,4.25,
21:02:05:03,0,-0.37888   -0.014018  -0.0030109     0.92533,-0.034332  -0.0062332   0.0047913,0.2894687      1.617322     -135.4619,-0.98047    -0.51855     0.62354,24.80746      121.0242      55.33522,0.126709    0.0447998      55.3352,-71,3,
21:02:05:34,0,-0.37882   -0.013865  -0.0028421     0.92536,0.013992    0.019379   0.0091019,0.3006168      1.593811     -135.4701,0.68555     0.43799    0.098572,24.80746      121.0242       55.3145,0.13208    0.0465088      55.3145,-70,3.25,
21:02:05:66,0,-0.37891   -0.013633  -0.0028074     0.92533,0.036987   -0.029953   0.0097351,0.2943814       1.56771     -135.4593,0.81836     0.17017     -0.7583,24.80746      121.0242      55.30708,0.13147    0.0505676      55.3071,-64,5.5,
21:02:05:96,0,-0.37891   -0.013492  -0.0018435     0.92533,-0.038574   0.0074272  -0.0059586,0.390493      1.510859     -135.4576,-0.80176     0.45728     -1.2852,24.80746      121.0242      55.33814,0.120605    0.0443115      55.3381,-66,5,
21:02:06:28,0,-0.37881   -0.013006  -0.0016949     0.92538,-0.047546   0.0059242 -0.00038695,0.384988      1.452948     -135.4711,0.61475    -0.95752    -0.78809,24.80746      121.0242      55.33407,0.12207    0.0368958      55.3341,-66,5.25,
21:02:06:59,0,-0.37873   -0.013565  -0.0016606     0.92541,-0.035675  -0.0088806    0.015732,0.4127515      1.510709     -135.4801,0.11255    -0.50439    -0.74902,24.80746      121.0242      55.31578,0.118774    0.0358276      55.3158,-66,5.25,
21:02:06:90,0,-0.37858   -0.013641   -0.001948     0.92547,-0.049042  0.00028396   0.0025425,0.3853203      1.531291     -135.4985,0.85498    -0.60352    -0.25293,24.80746      121.0242       55.2842,0.115601    0.0348816      55.2842,-64,5.75,
21:02:07:21,0,-0.37859   -0.014155  -0.0023141     0.92545,-0.01973    0.001565   0.0033951,0.3688162      1.601683     -135.4972,-0.35425     0.99854  -0.0048218,24.80746      121.0242      55.30137,0.0970459    0.0358582      55.3014,-68,4.75,
21:02:07:52,0,-0.37846   -0.013989  -0.0030086     0.92551,-0.04657     0.02533   -0.022171,0.2877336      1.614349     -135.5143,-0.1593    0.056427     -1.2568,24.80746      121.0242      55.29556,0.0935059    0.0350952      55.2956,-67,5,
21:02:07:83,0,-0.37842   -0.014404  -0.0028334     0.92552,-0.032471 -0.00030303  0.00054169,0.32426      1.650764     -135.5182,-0.49194     0.34326     -1.1396,24.80746      121.0242      55.28467,0.0911255    0.0364075      55.2847,-69,4.5,
21:02:08:14,0,-0.37832   -0.014093  -0.0027264     0.92556,-0.016235  -0.0012846   0.0071182,0.3219171      1.613113     -135.5316,0.63818    0.052032     0.46313,24.80746      121.0242      55.29233,0.0866699    0.0333557      55.2923,-71,3.5,
21:02:08:45,0,-0.37826   -0.014445  -0.0029906     0.92558,0.032959  -0.0021954   -0.014183,0.3090686       1.66195     -135.5382,-0.94385     0.90186    -0.68555,24.80746      121.0242      55.31747,0.069397    0.0328674      55.3175,-66,5,
21:02:08:76,0,-0.37819   -0.014463  -0.0028029     0.92561,0.026169    0.018524    0.022781,0.3296483      1.655792     -135.5471,0.96582    -0.10059     0.06842,24.80746      121.0242      55.29757,0.078064    0.0297241      55.2976,-67,5,
21:02:09:07,0,-0.37826   -0.014657  -0.0029391     0.92558,0.041107    0.020447   0.0026531,0.3237304      1.682212     -135.5378,0.31812     0.45435      1.6006,24.80746      121.0242       55.2807,0.0762939     0.029129      55.2807,-66,4.75,
21:02:09:39,0,-0.37817   -0.014441  -0.0032468     0.92562,-0.010612   0.0079956  -0.0033283,0.2815275      1.672619     -135.5499,-0.21033     0.24097   -0.077454,24.80746      121.0242      55.27954,0.0667114    0.0327148      55.2795,-68,5.25,
21:02:09:70,0,-0.3781   -0.014768  -0.0029221     0.92564,-0.026489   0.0024223   0.0076714,0.3300676       1.69334     -135.5576,-0.014     -0.9624      2.0566,24.80746      121.0242      55.29895,0.0609436    0.0233307       55.299,-66,5.5,
21:02:10:01,0,-0.37802   -0.014445   -0.003326     0.92568,0.033142   -0.018829   0.0047455,0.2730287      1.676548     -135.5687,-0.21631    -0.25366     0.74609,24.80746      121.0242      55.29458,0.0588989    0.0270386      55.2946,-66,5.25,
21:02:10:32,0,-0.37794   -0.014857  -0.0030151     0.92571,0.030731  -0.0091324    0.010818,0.3237496      1.706863      -135.578,-0.053467     0.93213     0.63477,24.80746      121.0242      55.28645,0.0603027    0.0354004      55.2864,-66,5.25,
21:02:10:63,0,-0.37782   -0.014664  -0.0032615     0.92576,-0.016129   -0.008461 -0.00030065,0.2889914      1.697028     -135.5933,-0.75098    -0.12939     0.87842,24.80745      121.0242      55.28317,0.0510254     0.029007      55.2832,-66,5,
21:02:10:94,0,-0.37779   -0.015117  -0.0033014     0.92576,-0.011925  -0.0050926   0.0061646,0.3043418      1.746877     -135.5966,-0.33203    0.043732    -0.66943,24.80745      121.0242      55.28264,0.0458069    0.0265656      55.2826,-66,5,
21:02:11:25,0,-0.37774   -0.014774  -0.0035105     0.92579,0.055145    -0.01741   0.0022621,0.2672174      1.719583     -135.6029,0.51855     0.33374    -0.69189,24.80745      121.0242      55.30829,0.040741    0.0287781      55.3083,-67,5.25,
21:02:11:56,0,-0.37778   -0.015139   -0.003131     0.92577,-0.022003    0.017334 -0.00098324,0.3233791      1.741823     -135.5966,-0.448    -0.10706     -1.6348,24.80745      121.0242      55.30635,0.0414734    0.0280609      55.3063,-66,5.25,
21:02:11:87,0,-0.3777    -0.01453   -0.002978     0.92581,0.012177   -0.033722    0.015472,0.3130828      1.670599     -135.6072,0.93848     0.41577    -0.58838,24.80745      121.0242      55.31155,0.0403748    0.0334778      55.3115,-66,5.75,
21:02:12:19,0,-0.37752   -0.014467  -0.0029715     0.92588,0.0018177   0.0034275 -0.00075006,0.3107066      1.663693     -135.6302,0.24719     0.42822     0.24365,24.80745      121.0242      55.31099,0.0365295    0.0364685       55.311,-67,5.25,
21:02:12:50,0,-0.37747   -0.014685  -0.0026739      0.9259,0.0062828    0.016418   0.0028267,0.3516591      1.674015      -135.636,0.35498    -0.19568      2.0098,24.80745      121.0242      55.31436,0.0348511     0.034729      55.3144,-67,5.5,
21:02:12:81,0,-0.37738   -0.014434   -0.002586     0.92594,-0.051575   0.0080719  -0.0029793,0.3499483      1.643566     -135.6471,0.45435    -0.72754    -0.86865,24.80745      121.0242      55.31571,0.0342407    0.0321655      55.3157,-68,5.5,
21:02:13:12,0,-0.3773   -0.014355    -0.00239     0.92598,0.016251   0.0068398    0.027588,0.3671921      1.626749     -135.6568,1.2432    -0.21692     0.16809,24.80745      121.0242        55.313,0.0354919     0.036499       55.313,-67,5.5,
21:02:13:43,0,-0.37718   -0.014626  -0.0023429     0.92602,0.056213    0.017883     -0.0084,0.3837011      1.653535     -135.6717,-0.06543     0.46094      1.5439,24.80745      121.0242      55.32077,0.0320435    0.0404663      55.3208,-67,5.25,
21:02:13:74,0,-0.37705   -0.014285  -0.0024255     0.92608,0.020462   -0.012428   0.0069008,0.3599405      1.620919      -135.688,0.072449    -0.21899     0.75684,24.80745      121.0242      55.33977,0.0264587    0.0334778      55.3398,-67,6.25,
21:02:14:05,0,-0.37705   -0.014712  -0.0023267     0.92607,0.045715    0.018265   0.0021973,0.3889188      1.662028      -135.687,0.07959     0.78564       1.625,24.80745      121.0242      55.33156,0.0279999    0.0380249      55.3316,-67,5.25,
21:02:14:36,0,-0.377   -0.014373  -0.0024864      0.9261,-0.0078812   0.0090103   0.0015192,0.3572147      1.632927     -135.6936,1.8906    -0.42188     -1.1748,24.80745      121.0242      55.30232,0.0317993    0.0339661      55.3023,-67,5,
21:02:14:67,0,-0.3768601715564728  -0.008890055119991302  -0.002347389236092567   1.14651849216491e+27,-1725    0.027389526   0.0014667511,-2.346155e-28   8.88538e-28          -180,9.0599e-06    -0.19897    -0.98584,24.96271      73.27419       506.443,5.988281    0.03463745       506.443,-67,2.5,
21:02:14:98,0,-0.37687   -0.014794  -0.0021794     0.92614,0.0063362    0.024384  0.00052404,0.4077882       1.66443     -135.7085,0.63721   -0.047668      2.1563,24.80745      121.0242      55.32222,0.0248871    0.0369568      55.3222,-67,5.5,
21:02:15:30,0,-0.37678   -0.014374  -0.0024271     0.92619,0.016205  -0.0078049   0.0039215,0.3631875      1.630619     -135.7211,1.6045    -0.17627     -1.0576,24.80745      121.0242      55.32884,0.0228577    0.0364075      55.3288,-68,5,
21:02:15:61,0,-0.3766   -0.014467  -0.0023373     0.92626,0.0055542    0.014877   0.0062981,0.3764054      1.636676     -135.7436,0.4834     0.47388    0.077637,24.80745      121.0242      55.30986,0.0165863    0.0470886      55.3099,-68,4.75,
21:02:15:92,0,-0.37654   -0.014875  -0.0021616     0.92628,0.041229    0.020477   -0.000669,0.4125748      1.672395     -135.7498,0.26245     0.13562      1.9883,24.80745      121.0242      55.28934,0.0145569    0.0429077      55.2893,-74,1.25,
21:02:16:23,0,-0.37649   -0.014596  -0.0021306      0.9263,-0.047516   0.0015888  0.00043273,0.4037147      1.641463     -135.7567,1.0527    -0.83057    -0.86475,24.80745      121.0242      55.29853,0.0176239    0.0329895      55.2985,-67,4.75,
21:02:16:85,0,-0.37637   -0.015277   -0.002964     0.92634,0.041687     0.05069   -0.014282,0.3444198      1.749803     -135.7716,-0.7373    -0.46094     -1.2666,24.80745      121.0242      55.28122,0.00592422    0.0348206      55.2812,-67,5,
21:02:17:16,0,-0.37618   -0.015233  -0.0024897     0.92642,-0.049713  -0.0084534   0.0093155,0.3924959      1.724674     -135.7944,-0.74072    -0.71045      1.1787,24.80745      121.0242      55.27724,-0.00282097    0.0383301      55.2772,-67,5.25,
21:02:17:47,0,-0.37622   -0.015515  -0.0031869      0.9264,0.0037193    0.044708  -0.0052986,0.3307064      1.784681     -135.7898,0.29321    -0.57031     -1.0488,24.80745      121.0242      55.28307,0.00939941    0.0272064      55.2831,-67,5.25,
21:02:17:78,0,-0.37612   -0.015497  -0.0032373     0.92644,0.012123   -0.015823  -0.0067902,0.3244189      1.785056     -135.8026,-0.8501      0.7876    -0.84619,24.80745      121.0242      55.27991,-0.00574112    0.0446167      55.2799,-69,5,
21:02:18:09,0,-0.37587   -0.014986  -0.0029384     0.92655,0.025177   -0.017136   -0.010826,0.3336143      1.717904     -135.8337,-0.99707     0.29126     0.60889,24.80745      121.0242      55.28606,-0.00832367    0.0454712      55.2861,-69,5,
21:02:18:41,0,-0.37589   -0.015146  -0.0023705     0.92654,0.005146    0.022202 -0.00010961,0.4009074      1.710503     -135.8299,-0.084473    -0.75635     -1.3203,24.80745      121.0242      55.27245,-0.00211334    0.0350952      55.2724,-69,4.25,
21:02:18:72,0,-0.37579   -0.015115  -0.0018714     0.92658,-0.041199   0.0026703   0.0052452,0.4523764      1.685682     -135.8413,-0.13281    -0.63135      1.9697,24.80745      121.0242      55.28375,-0.00643539    0.0343323      55.2838,-66,5.5,
21:02:19:03,0,-0.37565    -0.01496   -0.001888     0.92664,-0.061096   0.0069962   -0.001277,0.4437079      1.670088     -135.8596,0.26904    -0.71973    -0.77734,24.80745      121.0242      55.28348,-0.00841522    0.0281982      55.2835,-69,4.25,
21:02:19:34,0,-0.3757   -0.015444  -0.0021772     0.92661,0.024612    0.049072  -0.0016432,0.4338927       1.73383      -135.853,0.13135    -0.45605     -1.1602,24.80745      121.0242      55.27884,-0.00842285     0.030426      55.2788,-67,5,
21:02:19:65,0,-0.37562   -0.015239  -0.0017908     0.92665,-0.046814  0.00052738  0.00048637,0.4659604      1.695443     -135.8625,-0.7915    -0.12622     0.71143,24.80745      121.0242      55.26283,-0.0199585    0.0354004      55.2628,-67,5.5,
21:02:19:96,0,-0.37549   -0.014543  -0.0022342     0.92671,0.026001  -0.0045776   -0.011444,0.3886738      1.640769     -135.8807,-1.1777      0.6499     0.29175,24.80745      121.0242      55.26593,-0.0220947    0.0304108      55.2659,-66,5.25,
21:02:20:27,0,-0.37546   -0.015519   -0.002879      0.9267,-0.02034    0.012009  -0.0008812,0.3621364      1.772111     -135.8828,-0.31445    -0.27124     -1.1992,24.80745      121.0242      55.24788,-0.0173187    0.0170441      55.2479,-67,5,
21:02:20:58,0,-0.37531   -0.015597  -0.0035903     0.92676,-0.054077  -0.0038815    0.002718,0.28964      1.811079     -135.9021,1.0381    -0.54199    -0.95068,24.80745      121.0242      55.23024,-0.0142365    0.0253296      55.2302,-66,5.25,
21:02:20:89,0,-0.37521   -0.016024  -0.0035496     0.92679,-0.014137    0.033539   0.0077553,0.3121644      1.854758     -135.9137,0.73633    0.065491    -0.72607,24.80745      121.0242      55.23116,-0.0164948     0.028717      55.2312,-65,5.25,
21:02:21:21,0,-0.37512   -0.015925  -0.0031162     0.92684,-0.0055885    0.002121  0.00079679,0.3537391      1.825579     -135.9252,-0.45972     0.10132     -1.2334,24.80745      121.0242      55.22438,-0.0225067    0.0332336      55.2244,-66,5.25,
21:02:21:51,0,-0.3751   -0.014969   -0.002567     0.92686,-0.024094   -0.013359  -0.0014801,0.370963      1.700478     -135.9279,1.208     -0.4917    -0.96924,24.80745      121.0242      55.22832,-0.0194092    0.0290375      55.2283,-65,5.75,
21:02:21:83,0,-0.37501   -0.015082   -0.001846      0.9269,0.026566      0.0233   -0.013786,0.4522213      1.681447     -135.9388,-1.251      1.8457     0.45703,24.80745      121.0242      55.22635,-0.0314026    0.0393066      55.2263,-67,5,
21:02:22:14,0,-0.37485     -0.0147   -0.001561     0.92697,-0.0015316   -0.016037    0.021454,0.4658104      1.628747     -135.9585,0.87598    -0.30347      0.4353,24.80745      121.0242      55.20724,-0.0298309    0.0303802      55.2072,-66,5.75,
21:02:22:45,0,-0.37489   -0.014826  -0.0013067     0.92695,-0.065063   0.0055351   0.0028286,0.4983216      1.631201     -135.9533,-0.1792    -0.26709      1.2695,24.80745      121.0242      55.21029,-0.035614    0.0290527      55.2103,-67,5.5,
21:02:22:76,0,-0.37464   -0.014344  -0.0013351     0.92706,0.016541  -0.0029697  -0.0069199,0.4741485      1.581337     -135.9849,-0.52734     0.62793    0.017471,24.80745      121.0242      55.21948,-0.0388794     0.031311      55.2195,-67,5.5,
21:02:23:07,0,-0.37455   -0.014621  -0.0011822     0.92709,0.023865    0.026123  -0.0057144,0.5021386      1.604246     -135.9955,-0.098022     0.53906      1.4727,24.80745      121.0242      55.21503,-0.0370789    0.0250397       55.215,-66,5,
21:02:23:38,0,-0.37443   -0.014443  -0.0017395     0.92714,0.013   -0.016357   0.0081711,0.4350689      1.609311      -136.011,0.11438    0.081848     0.26294,24.80745      121.0242      55.21543,-0.0433655    0.0209503      55.2154,-66,5.5,
21:02:23:69,0,-0.3744   -0.015288  -0.0027163      1.8543,0.0032711    0.010506   -0.002121,0.02200613     0.9403178     -157.1694,0.10266    0.089905      1.9023,24.80744      121.0203      126.4634,-0.03994751    0.02282715      126.4634,-67,3.25,
21:02:24:00,0,-0.3742   -0.015355  -0.0030724     0.92721,0.0070877   -0.011436   0.0033951,0.3321221      1.763456     -136.0391,-0.62354    -0.19604     0.25122,24.80745      121.0242      55.23585,-0.0441589     0.014595      55.2358,-66,5.75,
21:02:24:32,0,-0.37422   -0.015829  -0.0029358      0.9272,-0.018448  0.00023878   0.0072403,0.3670485      1.808015     -136.0357,0.44922    -0.69434      1.7881,24.80745      121.0242      55.24471,-0.0427551    0.0211487      55.2447,-67,5.5,
21:02:24:63,0,-0.37408   -0.015768  -0.0030995     0.92726,-0.019272  -0.0031433    0.015411,0.346767       1.80862     -136.0532,0.78613     0.21094      0.4707,24.80745      121.0242      55.25692,-0.0476074    0.0267029      55.2569,-67,5.25,
21:02:24:94,0,-0.3739   -0.015289  -0.0028112     0.92734,-0.040771   -0.016525  -0.0077591,0.3564918      1.745356     -136.0759,-0.91113     0.66748    -0.61328,24.80745      121.0242      55.26108,-0.0531006    0.0318909      55.2611,-66,5,
21:02:25:25,0,-0.37391   -0.015291  -0.0026882     0.92733,-0.097656   0.0098877  -0.0074272,0.3696902       1.74033     -136.0745,-0.056641     0.04007     -1.2598,24.80745      121.0242      55.27197,-0.0513916    0.0193481       55.272,-66,5.25,
21:02:25:56,0,-0.37376   -0.015262  -0.0032897     0.92739,0.072266  -0.0059967   -0.012909,0.3042065      1.763086     -136.0941,-1.0674     0.43652   -0.085266,24.80745      121.0242      55.27737,-0.0591125    0.0181274      55.2774,-66,5.25,
21:02:25:87,0,-0.37377   -0.015519  -0.0026239     0.92739,-0.027679    0.011902    0.020569,0.3860493       1.76189     -136.0914,0.99316    0.027039     0.23352,24.80745      121.0242      55.28007,-0.0512085    0.0180359      55.2801,-67,5.25,
21:02:26:18,0,-0.37372   -0.015474  -0.0025679     0.92741,-0.028656    0.012329    0.019333,0.3899698      1.754739      -136.098,1.0205    0.076599  -0.0034599,24.80745      121.0242      55.27115,-0.0497131    0.0157623      55.2712,-66,5.25,
21:02:26:50,0,-0.37369   -0.015465  -0.0033966     0.92742,-0.016495 -0.00094175   0.0083771,0.3014026      1.789239      -136.103,0.55029   -0.065002    0.060059,24.80745      121.0242      55.28052,-0.0504456     0.014679      55.2805,-67,5.5,
21:02:26:80,0,-0.37348   -0.015963  -0.0033477     0.92749,-0.034546    0.013542   -0.003479,0.3275334      1.840134     -136.1272,-0.74951    -0.34448     0.85498,24.80745      121.0242      55.27917,-0.061554    0.0102615      55.2792,-67,5.5,
21:02:27:12,0,-0.37341   -0.015747  -0.0036395     0.92753,-0.053802    0.010048   -0.012947,0.2871172      1.829728     -136.1372,-0.0064583    -0.49243    -0.81152,24.80745      121.0242      55.27338,-0.056427    0.0151978      55.2734,-66,5,
21:02:27:42,0,-0.37313   -0.015655  -0.0036088     0.92764,0.024658    -0.02597   0.0093155,0.2858864      1.818702     -136.1722,-0.68066     0.39673     0.55273,24.80745      121.0242      55.26852,-0.0634766    0.0104218      55.2685,-67,4.75,
21:02:27:74,0,-0.37338   -0.016094  -0.0033053     0.92753,0.021942    0.039673   0.0083466,0.3374797      1.852377       -136.14,0.92236    -0.67627    -0.54883,24.80745      121.0242      55.28083,-0.0491333   0.00871277      55.2808,-67,5.25,
21:02:28:05,0,-0.37326   -0.015909  -0.0033228     0.92758,-0.032837    0.011345  0.00079823,0.3274693       1.83351     -136.1545,0.050995    -0.60889      1.9316,24.80745      121.0242      55.27184,-0.0571289   0.00930786      55.2718,-67,5.75,
21:02:28:36,0,-0.37316   -0.015654   -0.003592     0.92763,-0.053192   0.0080566   -0.016403,0.2876923      1.817878     -136.1686,-0.74316    -0.13818    -0.81104,24.80745      121.0242      55.26075,-0.0630493    0.0127106      55.2607,-68,5.5,
21:02:28:67,0,-0.37315   -0.016189   -0.003904     0.92762,0.017029    0.039185  -0.0024509,0.2773738       1.88808     -136.1694,0.023895    -0.80908     -1.3701,24.80745      121.0242      55.25835,-0.0565186   0.00791931      55.2583,-67,5,
21:02:28:98,0,-0.37302   -0.015861  -0.0041088     0.92768,0.021469   -0.015602   -0.004673,0.2413454      1.862093     -136.1856,0.54248     0.29907    -0.76074,24.80745      121.0242      55.25024,-0.0582581    0.0160065      55.2502,-67,5.25,
21:02:29:29,0,-0.37292   -0.016274  -0.0038944     0.92771,-0.028732    0.022018  -0.0045319,0.2815838      1.896803     -136.1973,-0.77344     0.79639     -1.2715,24.80745      121.0242       55.2486,-0.0635376    0.0192566      55.2486,-67,5.75,
21:02:29:60,0,-0.37277   -0.016081  -0.0035997     0.92778,0.013359    0.010376  -0.0026302,0.3043584      1.863737     -136.2163,-0.16309     0.98242     0.05603,24.80745      121.0242      55.23732,-0.0601807    0.0173187      55.2373,-67,5.25,
21:02:29:91,0,-0.3727   -0.015984  -0.0034448     0.92781,0.012314    0.015793  -0.0066376,0.3165826      1.846846     -136.2237,-0.2793      1.2266     0.41895,24.80745      121.0242      55.22994,-0.0589294    0.0149307      55.2299,-66,5.25,
21:02:30:23,0,-0.37263    -0.01602  -0.0039586     0.92783,-0.032227    0.010452    0.011902,0.2633259      1.872667     -136.2333,0.72266    -0.70313     0.94043,24.80745      121.0242      55.23473,-0.0624084   0.00984955      55.2347,-67,5.25,
21:02:30:53,0,-0.37457    -0.01412  -0.0054533     0.92708,0.042297    0.021515    0.021561,0.0267293      1.734357     -135.9994,0.17603    -0.94336     0.72314,24.80745      121.0242      55.23361,-0.226074      0.02034      55.2336,-69,4.75,
21:02:30:85,0,-0.38342    -0.01343   -0.010745     0.92341,-0.084961   -0.038177    0.081116,-0.5472431      1.893511     -134.9107,-5.5234      3.0508     -1.0791,24.80745      121.0242      55.23338,-0.556152    0.0140991      55.2334,-64,6,
21:02:31:16,0,-0.39994   -0.020696   -0.024493     0.91598,-0.13171    0.059082     0.12451,-1.625305       3.29667     -132.8723,-3.6055      1.2324     -2.6133,24.80745      121.0242      55.22435,-0.95752    -0.056427      55.2244,-62,6.25,
21:02:31:47,0,-0.42816   -0.030718   -0.047346     0.90194,-0.059692     0.13708     0.24146,-3.404007      5.506258     -129.3752,-4.5938      2.7188    -0.32202,24.80745      121.0242      55.22138,-1.35059    -0.143555      55.2214,-69,4.25,
21:02:31:78,0,-0.4786   -0.033274   -0.073543     0.87431,-0.020126    0.026108     0.47607,-5.598602      7.387543     -122.9688,-10296    -0.365234375      1.85449219,24.80647      121.0554      55.22005,-1.00684    -0.293213      55.2201,-63,3.5,
21:02:32:09,0,-0.55953   -0.024879   -0.076494     0.82489,-0.036285   -0.060455     0.64111,-5.690618      7.275844     -112.0632,3.3105     -2.5879      1.8555,24.80744      121.0242      55.22295,-2.06641    -0.644531       55.223,-61,6.5,
21:02:32:40,0,-0.6334   -0.013417   -0.063866     0.77107,0.092163   -0.068176     0.50244,-4.698803      5.831105      -101.436,-1.4844    -0.94092     0.21643,24.80744      121.0242      55.23411,-2.37695     -1.10742      55.2341,-68,5,
21:02:32:71,0,-0.67866  -0.0055659    -0.04309     0.73316,0.18457    -0.21899     0.30469,-3.19604       3.8215     -94.5278,-1.4326     -1.3887      1.3672,24.80744      121.0242      55.24001,-2.5625     -1.60059        55.24,-63,6.25,
21:02:33:03,0,-0.69831    0.010807    -0.03308     0.71495,-0.72168    -0.66895    0.067261,-3.57899      1.76196     -91.4038,-1.1426     -2.8691     0.97119,24.80743      121.0242      55.26577,-2.64258     -1.96582      55.2658,-66,5.25,
21:02:33:33,0,-0.7012   0.0017874   -0.037747     0.71197,-0.1731    -0.20593   -0.033051,-3.22904      2.88842     -90.9547,0.77881     -3.0117      2.7539,24.80742      121.0242      55.27616,-2.84766     -2.39844      55.2762,-66,5,
21:02:33:65,0,-0.71043  -0.0015745   -0.055147      0.7016,-0.27368    -0.13293     0.17529,-4.32364      4.62109     -89.4578,3.5195     -3.7949      2.2793,24.80741      121.0241      55.32327,-2.95898     -2.65234      55.3233,-67,5,
21:02:33:96,0,-0.73602   0.0019315   -0.057542     0.67451,-0.2124    -0.12512     0.19971,-4.63117       4.7092     -85.1966,-1.6465     -2.9121    -0.78809,24.8074      121.0241      55.36005,-2.96875      -2.9707        55.36,-64,5.5,
21:02:34:27,0,-0.7555  -0.0057852   -0.058129     0.65254,0.13953    0.031738     0.18286,-3.86635      5.47334     -81.8211,1.125    -0.16895     -1.6816,24.80739      121.0241      55.40536,-2.94141     -3.30859      55.4054,-68,4.5,
21:02:34:58,0,-0.77432   -0.008952   -0.059937     0.62988,0.3728     0.22168     0.22913,-3.55345      5.97521     -78.4398,2.1797      1.0566    -0.40088,24.80738      121.0241      55.43124,-2.71484     -3.42578      55.4312,-63,5.5,
21:02:34:89,0,-0.79301    0.012608   -0.053816     0.60669,-0.39307  -0.0028362     0.15198,-4.90509      4.01715     -75.0073,-1.5879     -3.6582      3.8027,24.80737      121.0241      55.44717,-2.35352     -3.48242      55.4472,-73,1.75,
21:02:35:20,0,-0.80386    -0.03708   -0.042312     0.59215,0.5918     0.43994     0.10498,0.548077      6.42715     -72.7218,4.6602      4.8242     -1.5322,24.80735      121.0241      55.46725,-2.08008     -3.37695      55.4672,-69,4,
21:02:35:51,0,-0.81911    0.006638   -0.039583     0.57224,-0.58643    -0.58838     0.15637,-3.22563      3.28187     -69.9694,2.2656     -3.0547       4.707,24.80734      121.0241      55.48181,-1.84961     -3.25391      55.4818,-57,5.75,
21:02:35:82,0,-0.82768   -0.010492   -0.031509     0.56022,0.23181   -0.072815    0.050171,-1.02987      3.66455     -68.2178,2.6211     0.23743    -0.84375,24.80733      121.0241      55.47103,-1.70605     -3.36914       55.471,-56,6.75,
21:02:36:14,0,-0.83165   0.0095961   -0.047157     0.55321,-0.41333   -0.065613    0.065674,-3.916      3.88876     -67.3958,-2.0586     -2.6035     0.98633,24.80732      121.0241      55.46105,-1.50391     -3.36523      55.4611,-63,5.75,
21:02:36:44,0,-0.84476  -0.0001597   -0.052407     0.53257,0.079773     0.13147     0.22693,-3.19708      5.08957     -64.5997,2.1836     0.53516      1.1885,24.80731      121.0241       55.4528,-1.37305     -3.35156      55.4528,-59,6,
21:02:36:76,0,-0.86534   -0.001236    -0.04306     0.49934,-0.040955    -0.20239     0.21631,-2.34873      4.34472      -60.063,0.68408      1.0146    -0.76611,24.8073      121.0241      55.42271,-1.15723     -3.24023      55.4227,-61,6.25,
21:02:37:07,0,-0.87879   0.0082676   -0.032271     0.47605,0.0034199    -0.10468     0.14624,-2.59698      2.79989     -56.9528,0.38013     -1.4453     0.62012,24.80729      121.0241      55.41011,-0.945313     -3.27539      55.4101,-58,6.25,
21:02:37:38,0,-0.88597 -0.00056323   -0.026536     0.46298,0.013954    0.043884    0.026657,-1.35228      2.72495     -55.2119,-0.27393   -0.052917    -0.11285,24.80728      121.0241      55.40079,-0.742676     -3.26367      55.4008,-58,6.25,
21:02:37:69,0,-0.88839   -0.006484   -0.027894      0.4582,-0.14795   -0.031219    0.036133,-0.805753      3.18171     -54.5882,-0.5791     0.33862      1.2529,24.80727      121.0241      55.38408,-0.674316     -3.09766      55.3841,-56,6.75,
21:02:38:00,0,-0.89351  -0.0052854   -0.026213     0.44825,0.19067    0.043823    0.086731,-0.806377      2.95671     -53.3041,2.2578       2.166     -0.2323,24.80726      121.0241      55.36176,-0.61084     -3.11133      55.3618,-55,5.75,
21:02:38:31,0,-0.89746  -0.0016133   -0.031398     0.43997,-0.032074    0.074646    0.070801,-1.41958      3.31222     -52.2722,-1.3359     -1.4219     -1.5244,24.80725      121.0241      55.33869,-0.504883     -3.06055      55.3387,-55,5.75,
21:02:38:62,0,-0.90488  -0.0060512   -0.025558     0.42486,-0.06842   -0.067993     0.12341,-0.617681      2.94609     -50.3179,0.54639      1.5352     0.94189,24.80725      121.0241      55.31854,-0.46167     -2.95117      55.3185,-55,6,
21:02:38:93,0,-0.91006  -0.0070376   -0.016387     0.41409,0.069275    0.004509    0.025436,-0.0436769      2.04325     -48.9332,1.7861      1.9053    -0.54736,24.80724      121.0241        55.291,-0.343994     -2.94727       55.291,-52,6.25,
21:02:39:25,0,-0.90898  0.00051231   -0.017612     0.41648,-0.10962    0.061951   -0.014458,-0.894398      1.81038     -49.2472,-0.38428    -0.57959     0.99268,24.80723      121.0241      55.26983,-0.284668     -2.89844      55.2698,-52,6,
21:02:39:55,0,-0.90773  -0.0086056   -0.022514     0.41886,-0.10754    0.045654   -0.015213,-0.185737      2.75603     -49.5456,0.20728      1.6768     0.42651,24.80722      121.0241      55.23648,-0.265381     -2.80859      55.2365,-51,6.5,
21:02:39:87,0,-0.90775  -0.0079424    -0.03142     0.41826,0.16882    0.038208   0.0075111,-0.681172      3.65149     -49.4989,-0.64014   0.0079651     0.61475,24.80721      121.0241      55.23897,-0.238525     -2.77344       55.239,-49,6,
21:02:40:18,0,-0.90995   0.0050607   -0.043175     0.41243,-0.49658    -0.13428    0.096497,-2.57619      4.26673     -48.8604,-0.94873     -1.4766    -0.74854,24.80721      121.0241      55.22076,-0.140991     -2.49805      55.2208,-47,5.75,
21:02:40:49,0,-0.92141   0.0029383   -0.042816     0.38622,-0.2644   -0.045624     0.25098,-2.21222      4.39501      -45.568,1.1025       1.541     0.16504,24.8072      121.0241       55.2221,-0.0589905     -2.42773      55.2221,-46,6.25,
21:02:40:80,0,-0.93303   0.0056965   -0.041519     0.35735,-0.42383    -0.23682     0.16589,-2.31611      4.20958     -41.9992,1.4707      2.0957     0.21802,24.8072      121.0241      55.19101,0.143066     -2.29883       55.191,-45,6.5,
21:02:41:11,0,-0.94471    0.015112   -0.044816     0.32449,0.085144     0.10455     0.26343,-3.31358      4.29371     -38.0373,1.3164      1.8311      0.9126,24.80719      121.0241       55.1716,0.265137     -2.25391      55.1716,-46,7,
21:02:41:42,0,-0.95971    0.025246   -0.037653     0.27729,0.24243     0.19336     0.35425,-3.98286      3.34061     -32.3478,0.5625     0.69238    -0.41064,24.80718      121.0241      55.13132,0.406738     -2.20313      55.1313,-42,6,
21:02:41:73,0,-0.97262    0.018048   -0.034216     0.22915,0.19189    -0.10107     0.33691,-2.91619      3.34151     -26.5988,0.44116    -0.26099    -0.78369,24.80718      121.0241      55.13092,0.52002      -2.0332      55.1309,-45,6.75,
21:02:42:04,0,-0.98241    0.011706   -0.028701     0.18417,-0.050537   -0.032074     0.27954,-1.9265       2.9853     -21.2857,0.68994     0.30273      1.2334,24.80717      121.0242      55.10896,0.699707      -1.8252       55.109,-42,6.25,
21:02:42:35,0,-0.98958   0.0075238   -0.013667      0.1431,-0.05481    -0.17798     0.25781,-1.0777      1.42659     -16.4704,1.5195      1.6963    -0.33716,24.80717      121.0242        55.077,0.718262     -1.69238       55.077,-57,6.25,
21:02:42:67,0,-0.99301   0.0027979   -0.014238     0.11712,0.25854     0.15674    0.095276,-0.509659      1.58282     -13.4599,-0.74414      1.3877     -1.2783,24.80717      121.0242      55.04638,0.802734     -1.46289      55.0464,-44,5.75,
21:02:42:98,0,-0.9947   0.0062451   -0.010479     0.10214,0.032593      0.0401     0.10065,-0.834676      1.12143     -11.7335,0.17822      1.2402   -0.043976,24.80716      121.0242      55.03482,0.65332     -1.09766      55.0348,-39,5.75,
21:02:43:29,0,-0.99567  -0.0065523  -0.0076153    0.092436,-0.11371    -0.11627   0.0071182,0.667028     0.938319     -10.6026,-2.4707      2.2715    -0.31494,24.80716      121.0242      55.02377,0.322266    -0.457031      55.0238,-40,5.75,
21:02:43:60,0,-0.99587  -0.0054908  -0.0010988    0.090592,0.058472   0.0063438   -0.022354,0.615208     0.182392     -10.3946,0.98242    -0.38428     0.90283,24.80716      121.0242      55.02463,0.299561    -0.271484      55.0246,-40,6.5,
21:02:43:91,0,-0.99602   0.0019435  -0.0062446    0.088946,-0.051666     0.09137   -0.014725,-0.285496     0.692939     -10.2079,0.16187     0.15833     0.89209,24.80716      121.0242      55.04063,0.279053    -0.133301      55.0406,-40,6,
21:02:44:22,0,-0.99604   0.0054816  -0.0095009    0.088222,0.0011015   -0.046295    0.029083,-0.721838      1.02905     -10.1297,1.1895      1.8789     0.65527,24.80716      121.0242       55.0547,0.18811    -0.141113      55.0547,-40,7,
21:02:44:53,0,-0.99609   0.0031597  -0.0067321    0.088044,-0.01445   -0.017578   0.0099945,-0.428616     0.736566     -10.1052,-0.061829    -0.28882    -0.14185,24.80716      121.0242      55.05742,0.160645    -0.148315      55.0574,-39,6,
21:02:44:84,0,-0.99608   0.0017552  -0.0040093    0.088297,0.047089    0.021439   -0.027191,-0.240915     0.439876     -10.1323,-0.004776     -1.9717     -1.3887,24.80716      121.0242      55.06791,0.162964    -0.145508      55.0679,-40,6.75,
21:02:45:16,0,-0.9961   0.0025822  -0.0050595    0.088015,0.045471    0.039825   0.0034332,-0.345796     0.551476     -10.1006,0.003252    -0.21216     0.22437,24.80716      121.0242      55.07214,0.179199     -0.11554      55.0721,-41,6.5,
21:02:45:46,0,-0.99613   0.0035752  -0.0065666    0.087581,-0.015404   0.0068169   -0.011192,-0.474043     0.713706     -10.0521,0.49487     -1.6445      1.0713,24.80716      121.0242      55.07364,0.133179      -0.1026      55.0736,-40,6.5,
21:02:45:78,0,-0.99615   0.0030144  -0.0050663    0.087436,-0.0089874    -0.06076    0.027832,-0.394875     0.548122     -10.0343,0.23145      1.5039    -0.70898,24.80716      121.0242      55.07534,0.123047   -0.0912476      55.0753,-41,6.75,
21:02:46:09,0,-0.99616   0.0016708  -0.0031378    0.087491,0.024536  -0.0084534    0.001955,-0.222186      0.34143     -10.0393,-0.24268     0.35864      2.6602,24.80716      121.0242      55.08223,0.120422   -0.0877075      55.0822,-41,6.5,
21:02:46:40,0,-0.99616    0.001543  -0.0030371    0.087447,-0.042175    0.011116  -0.0060539,-0.206577     0.331229     -10.0341,0.40137     0.69141      1.6602,24.80716      121.0242      55.09578,0.124878   -0.0785522      55.0958,-41,5.5,
21:02:46:71,0,-0.99615   0.0024641  -0.0043798    0.087474,0.0074348   -0.024902    0.014977,-0.325199     0.475258     -10.0381,-0.18652    -0.11646    -0.88574,24.80716      121.0242      55.10049,0.121887   -0.0751343      55.1005,-41,6.25,
21:02:47:02,0,-0.99614   0.0031928  -0.0051809    0.087541,0.047272  -0.0069771    0.012489,-0.416452     0.559376     -10.0465,-0.17029     0.22546      1.1338,24.80716      121.0242      55.10798,0.104431   -0.0792847       55.108,-41,6.5,
21:02:47:33,0,-0.99614   0.0019249  -0.0040605    0.087688,0.00057268   -0.011955   0.0011711,-0.260538      0.44416     -10.0623,0.55859    0.010582    -0.87305,24.80716      121.0242      55.11113,0.101013   -0.0783691      55.1111,-41,6.25,
21:02:47:64,0,-0.99615   0.0016303  -0.0030842    0.087638,-0.065186   -0.030182   0.0052757,-0.217077     0.335696     -10.0562,1.1709    -0.56348     0.82861,24.80716      121.0242      55.10776,0.103882   -0.0797119      55.1078,-41,6.25,
21:02:47:95,0,-0.99615   0.0016611  -0.0028801    0.087649,0.040222   -0.020065   0.0084457,-0.218544     0.312086     -10.0574,0.41187     0.37695     0.95703,24.80716      121.0242      55.10205,0.0849609   -0.0600281      55.1021,-41,5.75,
21:02:48:26,0,-0.99615   0.0010331  -0.0026318    0.087658,0.0383   0.0087051   0.0060959,-0.14437     0.290047     -10.0582,-0.19434     0.43677      1.9668,24.80716      121.0242      55.09457,0.0785522   -0.0590515      55.0946,-41,6.5,
21:02:48:58,0,-0.99614  0.00080255  -0.0018572    0.087756,0.029251 -0.00093889  -0.0077286,-0.110288      0.20393     -10.0693,0.045013    -0.54541     0.47461,24.80716      121.0242      55.09252,0.0724487   -0.0629272      55.0925,-42,7.25,
21:02:48:89,0,-0.99613  0.00026768  -0.0020574    0.087915,0.028732    0.017105  -0.0058136,-0.0512815     0.232146     -10.0874,-0.67432     -1.4102     0.87158,24.80716      121.0242      55.07961,0.0702515   -0.0631714      55.0796,-41,6.75,
21:02:49:20,0,-0.99612  0.00083531  -0.0020465    0.087954,-0.036591   0.0025291   0.0032349,-0.115975     0.225179      -10.092,-0.18237      1.7773     -1.9902,24.80716      121.0242      55.04036,0.0653687   -0.0434265      55.0404,-41,6.5,
21:02:49:51,0,-0.99612  0.00081631  -0.0025394    0.087926,-0.0085754   0.0057945   0.0041924,-0.118767      0.28164      -10.089,0.63428     0.68311    -0.73877,24.80716      121.0242      55.03689,0.0640259   -0.0439453      55.0369,-41,5.75,
21:02:49:82,0,-0.99611   0.0010949  -0.0021255    0.088051,0.0063934   -0.041901    0.012138,-0.146432     0.231574     -10.1033,-0.47632    -0.17261    -0.75439,24.80716      121.0242      55.03973,0.0508423   -0.0550232      55.0397,-41,6,
21:02:50:13,0,-0.9961  0.00091359  -0.0020086    0.088188,0.022064   0.0082703   0.0022621,-0.12458     0.220041      -10.119,-0.084229   -0.069641      1.0215,24.80716      121.0242      55.03053,0.0475159   -0.0508423      55.0305,-40,6.75,
21:02:50:44,0,-0.99609  0.00039818  -0.0018656    0.088324,0.021973   0.0096054  -0.0026436,-0.0643322     0.208922     -10.1345,-0.16028     0.31104       2.125,24.80716      121.0242      55.04092,0.0370178   -0.0410461      55.0409,-40,6.75,
21:02:50:75,0,-0.99608  0.00083257    -0.00209    0.088399,-0.030991   0.0048943   0.0036087,-0.116204     0.230125     -10.1433,-0.2876      1.6738     -2.0625,24.80716      121.0242      55.03633,0.0336609   -0.0338135      55.0363,-40,6.25,
21:02:51:07,0,-0.99608  0.00066401  -0.0023803    0.088458,0.028152    0.026093  -0.0057945,-0.0999204     0.264958     -10.1501,0.76953      0.3877    -0.99512,24.80716      121.0242      55.02641,0.0319214   -0.0395508      55.0264,-41,6.75,
21:02:51:37,0,-0.99607  0.00051916  -0.0014172    0.088592,-6.7115e-05  -0.0070229 -0.00055695,-0.0736446     0.156489     -10.1653,-0.11481       1.418     -1.5654,24.80716      121.0242      55.01151,0.0266571   -0.0372009      55.0115,-40,6.75,
21:02:51:69,0,-0.99606 -8.9372e-05  -0.0018017    0.088698,-0.025436    -0.01149    0.010735,-0.0081113      0.20655     -10.1774,0.086975    0.079834    -0.12659,24.80716      121.0242      55.00793,0.02948   -0.0392761      55.0079,-40,6.25,
21:02:52:00,0,-0.99605  0.00056987  -0.0020606    0.088825,-0.056213   0.0076637  -0.0049248,-0.0860189     0.229397     -10.1922,-0.17041      1.2158    -0.97705,24.80716      121.0242      54.99632,0.0222778   -0.0291901      54.9963,-39,5.75,
21:02:52:31,0,-0.99603  8.8871e-05  -0.0019997    0.088948,0.035553    0.012207   0.0040016,-0.0305255     0.227329     -10.2063,0.74756     0.55566     -0.4082,24.80716      121.0242      54.99145,0.021225   -0.0343933      54.9914,-40,6.5,
21:02:52:62,0,-0.99602  4.3903e-05  -0.0016457      0.0891,-0.033173   -0.015198   0.0056648,-0.0218137     0.187386     -10.2237,1.126   -0.089661     0.18237,24.80716      121.0242      54.97998,0.0278778   -0.0432739        54.98,-40,6.25,
21:02:52:93,0,-0.99601  0.00036308  -0.0015246    0.089193,0.037018   0.0015888   0.0035439,-0.057023     0.170298     -10.2345,-0.035461    -0.31616     0.78369,24.80716      121.0242      54.97404,0.0210419   -0.0401001       54.974,-41,7.25,
21:02:53:24,0,-0.99602  0.00017088  -0.0018376    0.089143,-0.0080109   0.0092926  -0.0057068,-0.038275     0.207991     -10.2287,-0.55273     -1.4229    -0.33081,24.80716      121.0242      54.96936,0.0164032   -0.0399475      54.9694,-41,6.5,
21:02:53:55,0,-0.996 -0.00027498  -0.0014654    0.089298,-0.014183  -0.0012293     0.02063,0.0163891      0.17007     -10.2464,-0.59375     0.69531     0.39429,24.80716      121.0242      54.95679,0.00891113   -0.0397034      54.9568,-41,7,
21:02:53:86,0,-0.996 -0.00011459  -0.0011929    0.089353,-0.031647  -0.0069885  -0.0034332,0.000864231     0.137318     -10.2528,0.52686     -1.4346    -0.49927,24.80716      121.0242      54.94838,0.0185699    -0.047699      54.9484,-40,6.25,
21:02:54:17,0,-0.99598  1.3221e-05  -0.0014305    0.089555,0.005497    0.010178   0.0072861,-0.0161893     0.163131      -10.276,-0.57129     0.11115    0.034149,24.80716      121.0242      54.94369,0.00945282   -0.0391235      54.9437,-40,6.5,
21:02:54:49,0,-0.99598  1.7013e-05  -0.0012938    0.089609,0.029953   0.0089798 -0.00030184,-0.0152268     0.147483     -10.2823,-0.13196    0.077942      1.8184,24.80716      121.0242      54.93666,0.00958252   -0.0396729      54.9367,-41,6.75,
21:02:54:80,0,-0.99597  0.00027429  -0.0011358    0.089638,0.0026817  -0.0054436   0.0078201,-0.0429714     0.126815     -10.2856,-0.60645      1.4766     -1.2822,24.80716      121.0242      54.92431,0.00974274   -0.0325317      54.9243,-40,6.75,
21:02:55:11,0,-0.99596 -5.2538e-05 -0.00091207    0.089828,-5.9366e-05   0.0025253   -0.019363,-0.00339237     0.104634     -10.3074,0.3252     -1.2012     0.21204,24.80716      121.0242      54.92128,0.00990295   -0.0474854      54.9213,-40,7,
21:02:55:42,0,-0.99595  -0.0010472 -0.00024335    0.089855,-0.0088577   -0.013451   0.0051689,0.117006     0.038556     -10.3105,-0.48047    -0.85889    -0.33691,24.80716      121.0242      54.90772,-0.00566101   -0.0552673      54.9077,-40,6.75,
21:02:55:73,0,-0.99594  -0.0019284   0.0020294    0.090023,-0.054688 -0.00081348  -0.0054703,0.241013     -0.21171     -10.3304,-0.069092     0.71582    -0.87939,24.80716      121.0242      54.86974,0.00580215   -0.0413818      54.8697,-39,5.5,
21:02:56:04,0,-0.99592  -0.0017055   0.0010914    0.090169,-0.040863    0.005146   0.0023899,0.205922    -0.106932     -10.3469,0.10132    -0.42285    -0.78809,24.80716      121.0242      54.85637,0.0247345   -0.0396118      54.8564,-40,6.5,
21:02:56:35,0,-0.99591 -0.00044875 -0.00027874    0.090348,0.041138  -0.0035934   0.0021534,0.0483264    0.0364571     -10.3673,0.42139    -0.54688      0.7627,24.80716      121.0242      54.85777,0.0233765    -0.046051      54.8578,-39,6.25,
21:02:56:66,0,-0.99591 -0.00084529 -0.00018299     0.09033,0.0094376  -0.0095367   0.0055847,0.0945733    0.0296326     -10.3652,-0.53418    -0.91943   -0.020035,24.80716      121.0242      54.86648,0.00619888   -0.0531311      54.8665,-39,6,
21:02:56:97,0,-0.9959 -0.00087814   0.0010036    0.090419,-0.038452    0.005703   -0.006813,0.110613    -0.105433     -10.3755,0.11926     0.67236     -0.7998,24.80716      121.0242      54.86835,0.0155563   -0.0419922      54.8684,-40,5.75,
21:02:57:28,0,-0.9959 -0.00085827  0.00032734    0.090511,-0.034332 -0.00031877   0.0060501,0.101342   -0.0284552     -10.3861,0.52979   -0.082581    -0.85352,24.80716      121.0242      54.86831,0.0232239   -0.0443115      54.8683,-40,6.75,
21:02:57:59,0,-0.99589 -0.00010451 -0.00024176    0.090622,0.022781   -0.018311    0.013664,0.00941631    0.0286745     -10.3987,-0.57861      1.8857     -1.3545,24.80716      121.0242      54.86588,0.0236511    -0.037323      54.8659,-40,6.5,
21:02:57:91,0,-0.99588 -0.00037973 -0.00017907    0.090717,0.0012817    0.023438    0.016037,0.0414725    0.0243827     -10.4098,-0.66748     0.29517     0.37085,24.80716      121.0242      54.86095,0.0126419   -0.0466003       54.861,-40,6.75,
21:02:58:21,0,-0.99589 -0.00012289 -8.0674e-05    0.090616,0.029755      0.0466  -0.0039215,0.0131863    0.0104826     -10.3981,-0.28687    -0.25757      1.3057,24.80716      121.0242      54.87049,0.0257568   -0.0486145      54.8705,-40,6.25,
21:02:58:53,0,-0.99584   0.0030174  -0.0033392    0.090972,-0.12793    0.044647  -0.0025578,-0.379154     0.349603     -10.4404,0.28955     0.11511     -1.0713,24.80716      121.0242      54.88256,0.0714111  -0.00845337      54.8826,-40,6.75,
21:02:58:83,0,-0.99579   0.0056164  -0.0090319    0.091016,-0.030487   -0.012337  -0.0059547,-0.735207      0.97209     -10.4509,-0.92432       -1.29    -0.41968,24.80716      121.0242      54.88126,-0.00124073   -0.0566406      54.8813,-41,6.5,
21:02:59:15,0,-0.99581   0.0021598   -0.004084     0.09135,0.039734   -0.024948   -0.003521,-0.289213     0.443425     -10.4838,-0.53613     0.64209     -1.4727,24.80716      121.0242      54.90657,-0.0262604   -0.0712891      54.9066,-41,6.75,
21:02:59:46,0,-0.9958   0.0026192  -0.0012669    0.091497,-0.068726    0.038391   -0.011292,-0.312163       0.1171     -10.4999,0.63721    -0.58789      -1.373,24.80716      121.0242      54.89383,0.0535278   -0.0240631      54.8938,-41,6.75,
21:02:59:77,0,-0.99578  0.00040446  -0.0020627    0.091739,0.021622   -0.047211  -0.0019588,-0.0678367     0.231123     -10.5274,-0.87207     0.68262     -1.7246,24.80716      121.0242       54.9038,-0.0134735   -0.0492554      54.9038,-42,5.5,
21:03:00:08,0,-0.99576  -0.0031925   0.0038345    0.091901,0.049713   -0.011063   0.0048332,0.404672    -0.403924     -10.5475,-0.20862   -0.049042     0.65918,24.80716      121.0242      54.90712,-0.00521088   -0.0586853      54.9071,-42,6.25,
21:03:00:39,0,-0.99572  -0.0061179   0.0091762    0.091741,0.03479   -0.042023   0.0017061,0.794666    -0.982748      -10.535,-0.18176      1.4844     -1.1201,24.80716      121.0242      54.90949,-0.028717   -0.0669556      54.9095,-41,5.25,
21:03:00:70,0,-0.99553    -0.01269    0.018872    0.091682,0.048462   -0.055115    0.010399,1.6472     -2.02003     -10.5526,-0.63184    -0.54688     0.69678,24.80716      121.0242      54.90321,-0.0328369   -0.0707397      54.9032,-41,7.25,
21:03:01:01,0,-0.99538   -0.014581    0.022535    0.092215,0.015068    0.020966   -0.021362,1.90333     -2.41698      -10.626,0.39185     -1.1465     0.41919,24.80716      121.0242       54.9065,0.0439758   -0.0337219      54.9065,-40,6.5,
21:03:01:32,0,-0.99556   -0.010121    0.016145    0.092151,0.020599    0.075317    -0.01207,1.3258     -1.73524     -10.5967,-0.31543     -1.2031      1.3828,24.80716      121.0242      54.90186,0.0860596   -0.0230103      54.9019,-40,6.75,
21:03:01:64,0,-0.9956  -0.0081631    0.012356    0.092477,-0.011917    0.028259   -0.019669,1.06259     -1.32325     -10.6257,0.66992    0.055481     -0.4104,24.80716      121.0242      54.91075,0.0552368   -0.0339661      54.9108,-40,6.5,
21:03:01:95,0,-0.99565  -0.0058316   0.0091363    0.092491,0.0026417    0.044434  -0.0093231,0.762316    -0.980639      -10.621,0.39429    0.020065    -0.51855,24.80716      121.0242      54.90442,0.047821   -0.0298767      54.9044,-40,6.75,
21:03:02:26,0,-0.99566  -0.0055868   0.0075659     0.09257,-0.039825    0.018967  -0.0081329,0.717773    -0.803989     -10.6285,0.29346     0.55273     0.70361,24.80716      121.0242      54.91567,0.0536804   -0.0358887      54.9157,-40,6.5,
21:03:02:57,0,-0.99565  -0.0050706   0.0080242    0.092639,-0.028488    0.011421     -0.0103,0.663798    -0.861718     -10.6363,0.20642      1.1152      -1.167,24.80716      121.0242      54.90747,0.0437622   -0.0401917      54.9075,-41,6.75,
21:03:02:88,0,-0.99563   -0.005692   0.0092101    0.092715,-0.013939    0.021057    -0.01519,0.747391    -0.990369     -10.6468,0.89844    -0.15369     -1.4629,24.80716      121.0242      54.89902,0.0491028   -0.0426331       54.899,-41,6.5,
21:03:03:19,0,-0.99564  -0.0049088   0.0083262    0.092815,-0.067932  -0.0017681   0.0078011,0.648699    -0.897772     -10.6567,0.17444     0.83057    -0.70605,24.80716      121.0242      54.88934,0.0632935   -0.0364075      54.8893,-39,6.25,
21:03:03:50,0,-0.99563  -0.0047961   0.0076167    0.092922,-0.060852    0.011024  -0.0097809,0.628372     -0.81796     -10.6683,0.646    -0.97607     0.60742,24.80716      121.0242      54.89124,0.0625    -0.052002      54.8912,-39,5.75,
21:03:03:81,0,-0.99561  -0.0050412   0.0076282    0.093107,0.032776    0.018036    0.015884,0.656613    -0.816535     -10.6898,-0.56787    0.025024     0.11761,24.80716      121.0242        54.885,0.0558777   -0.0490417       54.885,-39,6,
21:03:04:12,0,-0.9956    -0.00516    0.008076    0.093173,-0.043091   -0.021393    0.010971,0.675015    -0.866315      -10.698,1.1025     0.40088      1.3496,24.80716      121.0242      54.87573,0.0721436   -0.0490417      54.8757,-40,6,
21:03:04:43,0,-0.99561  -0.0048172   0.0078496    0.093176,-0.042847   0.0068359  -0.0066681,0.63348    -0.844141     -10.6978,0.46289     0.72705    -0.73633,24.80716      121.0242      54.88218,0.0737305   -0.0439453      54.8822,-39,5.75,
21:03:04:75,0,-0.9956  -0.0052201   0.0076155    0.093275,-0.027802   0.0049019   0.0026455,0.677028    -0.813057     -10.7093,0.45605     0.38135     -1.0059,24.80716      121.0242      54.89303,0.0743408   -0.0470581       54.893,-39,6.25,
21:03:05:06,0,-0.99558  -0.0051873    0.007823    0.093479,-0.027924   0.0068398  -0.0056267,0.675681    -0.836948      -10.733,0.2854    -0.27246    -0.15112,24.80716      121.0242      54.90052,0.0800781   -0.0550537      54.9005,-39,5.75,
21:03:05:37,0,-0.99557  -0.0054405   0.0078186    0.093492,0.02684   0.0089264    0.011093,0.704529     -0.83372     -10.7347,0.90039      1.4199    -0.52979,24.80716      121.0242      54.90254,0.0808105   -0.0454712      54.9025,-40,6.5,
21:03:05:68,0,-0.99556  -0.0056934   0.0086581    0.093591,0.0085144   -0.026169  0.00052071,0.742493    -0.926714      -10.747,0.42383    -0.55273     -1.1221,24.80716      121.0242      54.89753,0.079895   -0.0657349      54.8975,-40,6.25,
21:03:05:99,0,-0.99551  -0.0065142   0.0094376    0.093959,0.016357  -0.0051727   -0.012711,0.844896     -1.00653     -10.7909,0.25781    -0.81836     0.16614,24.80716      121.0242      54.90705,0.0844116   -0.0568542       54.907,-42,6.5,
21:03:06:30,0,-0.99554  -0.0051609   0.0087424    0.093818,-0.016495    0.037079  -0.0022259,0.682858    -0.941894     -10.7728,0.18066    -0.21094      1.3369,24.80716      121.0242      54.90221,0.102722   -0.0579224      54.9022,-41,6,
21:03:06:61,0,-0.9955  -0.0047723    0.007955    0.094326,-0.0061188    0.022873   -0.012428,0.630472    -0.855921     -10.8303,0.081421      -0.854     0.65479,24.80716      121.0242      54.91052,0.106201   -0.0652466      54.9105,-41,6,
21:03:06:92,0,-0.99551  -0.0061364   0.0092442    0.093954,-0.071655   -0.033234  -0.0046158,0.799699    -0.988533     -10.7898,-0.30298     -1.1025    -0.55664,24.80716      121.0242      54.92805,0.0906982   -0.0524902      54.9281,-41,6.5,
21:03:07:23,0,-0.99548  -0.0045492   0.0059011    0.094688,-0.0097504     0.06781   -0.021973,0.583013    -0.623813     -10.8703,-0.081238     -1.6592    -0.72412,24.80716      121.0242       54.9204,0.122742   -0.0604553      54.9204,-41,7,
21:03:07:55,0,-0.9955  -0.0033513   0.0058482    0.094575,0.072815  -0.0028877   0.0060616,0.445707    -0.630829     -10.8564,-0.46143    -0.28271      1.9658,24.80716      121.0242      54.93787,0.104004   -0.0700684      54.9379,-40,6.5,
21:03:07:86,0,-0.99548   -0.003346   0.0067052    0.094725,-0.051971  -0.0084534   -0.014107,0.454517    -0.728582     -10.8742,0.39844     0.88818    -0.30029,24.80716      121.0242      54.96114,0.101807   -0.0532227      54.9611,-40,6.25,
21:03:08:17,0,-0.99548 -0.00039769   0.0061659    0.094786,-0.062805    0.068054   0.0018482,0.112346    -0.699066     -10.8789,-0.0044441     -1.2197     0.50928,24.80716      121.0242      54.97188,0.132935   -0.0552979      54.9719,-50,6.5,
21:03:08:48,0,-0.99547  -0.0037366   0.0044933    0.094857,-0.11627  -0.0057259  -0.0013895,0.475109    -0.471948     -10.8883,0.28687     0.89551     0.79053,24.80716      121.0242      54.97134,0.113708   -0.0458984      54.9713,-40,5.5,
21:03:08:79,0,-0.99543  -0.0054889   0.0053289    0.095184,-0.0062141    0.025604   -0.011932,0.684278       -0.548     -10.9275,0.16187      1.8594     -1.7803,24.80716      121.0242      54.97026,0.112915   -0.0631104      54.9703,-42,6.5,
21:03:09:10,0,-0.99546  -0.0037855   0.0045516    0.094983,0.047943    0.043304   -0.011292,0.481381     -0.47801     -10.9028,-0.2146    -0.12708    -0.37256,24.80716      121.0242      54.95967,0.115723   -0.0673218      54.9597,-41,6.5,
21:03:09:41,0,-0.99543   -0.003024   0.0042902    0.095321,-0.033051   -0.026718   0.0076485,0.391822    -0.456351     -10.9413,-0.25513    -0.53809    -0.57178,24.80716      121.0242      54.94379,0.128296   -0.0658569      54.9438,-41,6.75,
21:03:09:72,0,-0.99542  -0.0036351   0.0021797    0.095525,0.097168    0.010094   0.0080109,0.438508    -0.208838     -10.9639,-1.292      -1.085     0.55078,24.80716      121.0242      54.94108,0.129761   -0.0755005      54.9411,-41,6.5,
21:03:10:03,0,-0.99541  -0.0032421   0.0037167    0.095575,0.004734   -0.068176   0.0066223,0.410536    -0.388443     -10.9704,-0.23218     0.48804    -0.10425,24.80716      121.0242      54.94146,0.125122   -0.0657349      54.9415,-40,6.5,
21:03:10:34,0,-0.99537  -0.0022534   0.0064901    0.095886,-0.029953   -0.027466   -0.014771,0.328368    -0.715525      -11.007,0.14282     0.41089    -0.51221,24.80716      121.0242      54.96075,0.12793   -0.0541382      54.9607,-40,6.5,
21:03:10:66,0,-0.99543  -0.0038824   0.0030978     0.09534,0.05899    0.022598   0.0065231,0.476709    -0.310942     -10.9431,-0.97363     0.54004    -0.92432,24.80716      121.0242       54.9866,0.153809   -0.0779419      54.9866,-39,6,
21:03:10:96,0,-0.99539  -0.0013912   0.0043276    0.095848,0.0014343 -0.00079823  -0.0016623,0.206221    -0.478342     -11.0013,-0.92969    -0.16394 -0.00043964,24.80716      121.0242      55.03859,0.137817   -0.0637207      55.0386,-38,6.5,
21:03:11:28,0,-0.99535  -0.0026381   0.0038964    0.096176,-0.047699    0.031555    0.013588,0.343851    -0.415347     -11.0394,-0.16516     -1.3984       1.168,24.80716      121.0242      55.08356,0.161865   -0.0726929      55.0836,-41,6.75,
21:03:11:59,0,-0.99539 -0.00097562   0.0018512    0.095918,-0.082886  -0.0048141    0.011047,0.131631     -0.20043     -11.0085,0.90918    -0.56641     0.52588,24.80716      121.0242      55.10172,0.167603   -0.0791016      55.1017,-44,6.5,
21:03:11:90,0,-0.99538  -0.0012058   0.0018524    0.095942,0.029205    0.026062    0.010796,0.1579    -0.198035     -11.0114,-0.84814    -0.43701     0.36328,24.80717      121.0242       55.1353,0.13501    -0.069519      55.1353,-50,6.75,
21:03:12:21,0,-0.99537  -0.0020113   0.0035625    0.096074,0.012054   -0.027237   0.0085907,0.268641    -0.384204     -11.0273,-0.1449      1.7939      -1.335,24.80717      121.0242      55.16713,0.137939   -0.0678711      55.1671,-56,6.75,
21:03:12:52,0,-0.99536  -0.0037965   0.0048148    0.096058,-0.057953  0.00020599    0.014282,0.486054    -0.507389     -11.0268,-0.31812     0.11908    -0.23999,24.80717      121.0242      55.19503,0.134277   -0.0687256       55.195,-44,6.5,
21:03:12:83,0,-0.99533  -0.0036203    0.005817    0.096307,-0.047638    0.019516  -0.0012026,0.477149    -0.623522      -11.056,0.25073     0.67773    -0.86377,24.80717      121.0242      55.18998,0.153809   -0.0587769        55.19,-42,6.25,
21:03:13:14,0,-0.99532  -0.0036281   0.0048262    0.096409,0.042572    0.044098   0.0043869,0.467147    -0.510383     -11.0671,0.03479     0.47583    0.024399,24.80717      121.0242      55.19248,0.150513   -0.0606079      55.1925,-42,6.5,
21:03:13:45,0,-0.99531  -0.0039596   0.0062334    0.096455,0.0035992   0.0029545  -0.0010262,0.520546    -0.667191     -11.0734,-0.15125     0.50342      1.8926,24.80717      121.0242       55.1925,0.129761    -0.076355      55.1925,-42,6.25,
21:03:13:76,0,-0.99528  -0.0051689    0.008012    0.096606,0.021149   0.0074539  -0.0098648,0.678296    -0.856588     -11.0931,0.50586    -0.53369    -0.58203,24.80717      121.0242      55.20023,0.132202   -0.0736084      55.2002,-42,6.25,
21:03:14:08,0,-0.99525  -0.0060347   0.0091069    0.096746,0.062378   -0.013519   0.0012865,0.789339    -0.971759      -11.111,-0.18359    -0.44482      1.6719,24.80717      121.0242      55.19583,0.134766   -0.0697632      55.1958,-42,5.75,
21:03:14:39,0,-0.99525  -0.0051835   0.0092208    0.096801,0.015007  -0.0062599   0.0074081,0.693562    -0.994162     -11.1166,0.19116     0.80518     0.37305,24.80717      121.0242      55.18457,0.140991   -0.0578308      55.1846,-38,0.25,
21:03:14:70,0,-0.99525  -0.0046162   0.0086559    0.096847,0.031616 -0.00045228   -0.004818,0.622627    -0.935995     -11.1209,-0.54785     -0.5249    -0.64697,24.80717      121.0242      55.19906,0.139526   -0.0629272      55.1991,-40,0.5,
21:03:15:01,0,-0.99525  -0.0045887   0.0076207    0.096977,0.014381    0.013741   -0.009697,0.608092    -0.818157     -11.1351,-0.91846     -1.5439      1.0166,24.80717      121.0242      55.19997,0.130737   -0.0633545         55.2,-42,6,
21:03:15:32,0,-0.99523  -0.0039589   0.0063739    0.097219,0.04184    0.018967   -0.011978,0.522545    -0.682821     -11.1616,0.76416    -0.99219     0.12585,24.80717      121.0242      55.20308,0.138672   -0.0698853      55.2031,-41,6.25,
21:03:15:63,0,-0.99523  -0.0044427    0.006773    0.097204,0.033386  -0.0026512 -0.00075626,0.582173    -0.722959     -11.1605,-0.55176    0.035309      2.1406,24.80717      121.0242      55.19438,0.111694   -0.0740356      55.1944,-42,5.75,
21:03:15:94,0,-0.9952  -0.0053988   0.0084632    0.097352,-0.052887    0.001461  -0.0060768,0.71021    -0.904964     -11.1795,0.323     0.33374     -1.0098,24.80716      121.0242      55.21412,0.117004    -0.062561      55.2141,-42,6.25,
21:03:16:25,0,-0.99517  -0.0067888   0.0090022    0.097519,-0.029129   -0.012917   0.0056038,0.874939    -0.950777     -11.2006,-0.092346     -0.4519    -0.22595,24.80716      121.0242       55.1977,0.121216   -0.0678711      55.1977,-42,6.25,
21:03:16:57,0,-0.99516  -0.0056033   0.0098855    0.097611,0.019287  -0.0029526   0.0053978,0.749703      -1.0647     -11.2109,-0.55469      1.1426     -1.3789,24.80716      121.0242      55.18483,0.124084   -0.0647583      55.1848,-41,5.75,
21:03:16:87,0,-0.99515  -0.0056781   0.0088958    0.097764,0.061493     0.03421   0.0061417,0.747293    -0.950874     -11.2276,-0.38159    -0.18994     0.48315,24.80716      121.0242      55.18437,0.126099   -0.0655518      55.1844,-43,6.25,
21:03:17:19,0,-0.99514  -0.0052091   0.0085387     0.09795,-0.061432   -0.023132   0.0085907,0.68996    -0.915277     -11.2483,1.1074    -0.38525     0.33179,24.80716      121.0242      55.19132,0.12915   -0.0723877      55.1913,-44,6.25,
21:03:17:50,0,-0.99513  -0.0056846    0.008839    0.098034,0.015587    0.020187    0.015671,0.747656     -0.94412     -11.2587,-0.71338     0.46997     0.43506,24.80716      121.0242      55.18916,0.115112   -0.0614319      55.1892,-45,6.5,
21:03:17:81,0,-0.99514  -0.0056476   0.0088537     0.09794,-0.062195   -0.021545   0.0068588,0.743513     -0.94628     -11.2479,1.123    -0.31323      1.0967,24.80716      121.0242      55.17622,0.126831   -0.0739136      55.1762,-44,6.5,
21:03:18:12,0,-0.99513  -0.0048467   0.0080546    0.098114,0.029449   0.0026455   0.0072746,0.643334    -0.864036     -11.2664,0.32031   -0.070862     0.92529,24.80716      121.0242      55.17179,0.128906   -0.0596924      55.1718,-41,-0.75,
21:03:18:43,0,-0.99513  -0.0047427    0.007173     0.09824,-0.041931   -0.015564    0.002224,0.621641    -0.764591     -11.2802,0.16309     0.66357      1.6807,24.80716      121.0242      55.15752,0.113281   -0.0632324      55.1575,-42,6,
21:03:18:74,0,-0.99511  -0.0047893    0.007872    0.098379,0.034882  -0.0073242   0.0014343,0.634949    -0.843691     -11.2968,-0.035339    -0.11292     0.36816,24.80716      121.0242      55.17208,0.100952   -0.0653076      55.1721,-42,6.5,
21:03:19:05,0,-0.99509  -0.0058006   0.0090567    0.098402,0.045074   -0.010941   -0.010284,0.763686    -0.967361     -11.3014,-0.50098    -0.91016      1.4912,24.80716      121.0242      55.18217,0.0948486    -0.071167      55.1822,-50,6.25,
21:03:19:36,0,-0.99505  -0.0064103    0.010119    0.098625,0.020309   0.0018826 -0.00028753,0.845482     -1.08148     -11.3288,0.15747    0.091431     0.31226,24.80716      121.0242      55.19299,0.108459   -0.0626831       55.193,-49,5.75,
21:03:19:67,0,-0.99505     -0.0062   0.0096265    0.098732,0.022614    0.010902    -0.01358,0.816018     -1.02756     -11.3404,-0.51465     -1.9199     0.75879,24.80716      121.0242      55.19446,0.111511   -0.0606995      55.1945,-46,6.25,
21:03:19:98,0,-0.99507  -0.0042626   0.0081218    0.098766,-0.063477    0.024597  -0.0095901,0.578043    -0.877891     -11.3411,-0.10718     0.61377     -1.4805,24.80716      121.0242      55.21726,0.109009     -0.04599      55.2173,-44,6,
21:03:20:30,0,-0.99509  -0.0040702    0.007006    0.098672,0.0083923    0.044617   0.0036163,0.54339    -0.752884     -11.3293,-0.017944     0.34497    0.099365,24.80716      121.0242      55.21383,0.112793   -0.0422668      55.2138,-43,6,
21:03:20:61,0,-0.99507  -0.0034889   0.0057317    0.098902,0.0059624    0.011223  -0.0060501,0.462817    -0.614042     -11.3547,-0.032837      0.1792      2.0996,24.80716      121.0242      55.21311,0.0979614   -0.0549316      55.2131,-43,6.25,
21:03:20:92,0,-0.99506  -0.0025338   0.0050685    0.099069,0.041229   0.0058899  -0.0035686,0.346481    -0.549187      -11.373,0.7998    -0.51221     0.19507,24.80716      121.0242       55.2104,0.0957031    -0.053009      55.2104,-44,5.5,
21:03:21:23,0,-0.99507  -0.0032272   0.0054955    0.099007,-0.021469  -0.0086136  -0.0017014,0.430361     -0.59003     -11.3665,0.42822    -0.27197    -0.96338,24.80716      121.0242      55.24495,0.0789795    -0.049408       55.245,-42,6.25,
21:03:21:54,0,-0.99505   -0.003388   0.0067629    0.099138,0.018677   -0.031769   0.0051994,0.463184    -0.732668     -11.3824,-0.27124    -0.58008     -1.1895,24.80716      121.0242        55.265,0.0765991   -0.0593872       55.265,-42,6.25,
21:03:21:85,0,-0.99503    -0.00434   0.0071844     0.09919,0.023758    0.038879  -0.0013599,0.576585    -0.769874     -11.3893,-0.48413     0.17822    -0.10883,24.80716      121.0242      55.27253,0.0748901   -0.0501709      55.2725,-43,5.75,
21:03:22:16,0,-0.99501  -0.0041919   0.0075523     0.09938,0.013428 -0.00065422    0.002882,0.564029    -0.813399     -11.4113,-0.49463     0.26709      2.3652,24.80716      121.0242       55.2835,0.0749512   -0.0509033      55.2835,-43,6,
21:03:22:47,0,-0.99501  -0.0039685   0.0074222    0.099424,0.029465   0.0067673  -0.0026379,0.537114    -0.801095     -11.4161,0.25293   0.0017986    -0.11066,24.80716      121.0242      55.31038,0.0796509   -0.0458679      55.3104,-42,6,
21:03:22:78,0,-0.995  -0.0041148    0.007438     0.09951,0.024338    0.021637   -0.013649,0.554037    -0.801172     -11.4262,-0.66406     -1.0713      1.5547,24.80716      121.0242       55.3289,0.0715942    -0.056427      55.3289,-43,6,
21:03:23:09,0,-0.99498  -0.0043466   0.0085383    0.099649,0.032104   -0.017487   -0.007637,0.593171     -0.92391     -11.4432,0.47656    -0.62207     0.15442,24.80716      121.0242      55.32727,0.0606995    -0.055542      55.3273,-41,5.25,
21:03:23:40,0,-0.99493  -0.0066196    0.010832    0.099749,0.0017757   -0.022141  -0.0042381,0.878738     -1.15942     -11.4592,-0.31885      -1.209      0.1731,24.80716      121.0242      55.32804,0.052124   -0.0533447       55.328,-43,2,
21:03:23:71,0,-0.99493  -0.0062555     0.01111     0.09979,0.049438   -0.014999   0.0057564,0.840445     -1.19522     -11.4638,-0.65381      1.0029      -1.668,24.80716      121.0242       55.3819,0.0719604   -0.0369263      55.3819,-43,6.25,
21:03:24:03,0,-0.99496  -0.0028394   0.0066846     0.10003,0.025253     0.04007   -0.018372,0.400393    -0.729604     -11.4849,0.35498     -1.7998     0.32349,24.80716      121.0242      55.39533,0.0841675   -0.0446777      55.3953,-43,6.25,
21:03:24:33,0,-0.99498   -0.002486   0.0046679    0.099924,-0.053284    0.010132  -0.0032845,0.336905    -0.503764     -11.4713,-0.26147     -1.0186    -0.59619,24.80716      121.0242      55.40548,0.0654907   -0.0424194      55.4055,-43,6,
21:03:24:65,0,-0.99495   -0.002768   0.0053819     0.10014,0.024048   -0.010651  -0.0036526,0.377375    -0.581859     -11.4971,-0.62939     0.77881     -1.8008,24.80716      121.0242      55.39824,0.0534363   -0.0385742      55.3982,-42,6,
21:03:24:96,0,-0.99495  -0.0033429   0.0056883     0.10012,0.05072    0.041534    -0.00107,0.44642    -0.610204     -11.4944,-0.098816     0.30322   0.0057831,24.80716      121.0242      55.43327,0.0482788   -0.0377808      55.4333,-42,6.25,
