UTC(1)	UTC(2)	UTC(3)	UTC(4)	Pack_count(1)	Pack_count(2)	q0(1)	q0(2)	q0(3)	q0(4)	q1(1)	q1(2)	q1(3)	q1(4)	q2(1)	q2(2)	q2(3)	q2(4)	q3(1)	q3(2)	q3(3)	q3(4)	RollRate(1)	RollRate(2)	PitchRate(1)	PitchRate(2)	YawRate(1)	YawRate(2)	FreeAccX(1)	FreeAccX(2)	FreeAccY(1)	FreeAccY(2)	FreeAccZ(1)	FreeAccZ(2)	Lat(1)	Lat(2)	Lat(3)	Lat(4)	Long(1)	Long(2)	Long(3)	Long(4)	Height(1)	Height(2)	Height(3)	Height(4)	VelX(1)	VelX(2)	VelY(1)	VelY(2)	VelZ(1)	VelZ(2)	LoRaRSSI	LoRaSNR
13	54	22	85	17	167	60	227	0	126	60	187	11	191	188	64	74	0	63	127	209	60	182	190	176	109	37	108	183	120	64	189	64	197	65	198	116	20	66	242	24	239	66	151	86	99	26	126	180	210	165	116	-59	6.25
13	54	23	17	17	168	60	234	78	254	60	170	4	148	58	214	174	160	63	127	214	252	48	148	30	44	36	108	63	10	192	29	171	3	65	198	116	21	66	242	24	239	66	151	57	211	44	15	179	157	166	252	-58	6
13	54	23	48	17	169	60	232	138	196	60	234	223	165	187	144	210	88	63	127	202	5	174	25	38	241	47	44	172	121	182	239	62	47	65	198	116	20	66	242	24	239	66	151	45	36	41	241	180	29	164	104	-57	6.5
13	54	23	79	17	170	60	225	74	72	60	218	24	231	186	205	184	128	63	127	207	231	42	71	37	22	169	222	58	61	192	194	56	116	65	198	116	20	66	242	24	239	66	151	27	4	153	219	180	8	168	115	-57	6.25
13	54	24	10	17	171	60	222	67	70	60	205	0	113	187	69	44	160	63	127	211	13	174	152	154	2	44	92	192	6	61	45	192	87	65	198	116	20	66	242	24	239	66	151	18	178	14	230	179	217	168	87	-56	6.25
13	54	24	41	17	172	60	225	206	38	60	229	118	79	187	25	129	176	63	127	205	50	34	216	169	104	171	225	168	249	184	217	191	234	65	198	116	20	66	242	24	239	66	151	7	3	38	86	179	184	165	119	-57	6.5
13	54	24	72	17	173	60	227	166	34	60	241	204	161	186	148	116	128	63	127	202	24	45	1	32	58	173	75	61	14	190	39	176	198	65	198	116	21	66	242	24	239	66	150	253	185	31	226	179	64	148	240	-57	6.75
13	54	25	3	17	174	60	228	156	24	60	211	79	91	186	201	80	96	63	127	208	152	170	87	44	26	43	27	187	18	58	106	189	156	65	198	116	20	66	242	24	239	66	150	243	190	168	169	179	46	164	37	-57	6.5
13	54	25	34	17	175	60	226	192	118	60	182	140	218	186	232	176	128	63	127	214	133	163	77	152	147	166	228	177	231	56	200	179	43	65	198	116	20	66	242	24	239	66	150	236	21	165	13	178	241	164	18	-58	6.25
13	54	25	66	17	176	60	224	123	30	60	173	86	70	186	120	216	64	63	127	216	177	43	106	168	103	38	86	45	81	56	194	62	109	65	198	116	20	66	242	24	239	66	150	229	213	34	146	178	185	22	41	-59	5.5
13	54	25	96	17	177	60	227	75	74	60	205	97	191	186	133	166	128	63	127	210	34	38	97	157	235	39	116	181	149	56	252	185	199	65	198	116	21	66	242	24	239	66	150	221	236	26	255	178	47	152	191	-60	6
13	54	26	28	17	178	60	226	211	190	60	215	17	126	186	10	34	64	63	127	208	70	164	41	37	121	160	42	52	92	165	16	51	83	65	198	116	21	66	242	24	239	66	150	213	224	164	15	178	66	12	162	-60	6.5
13	54	26	58	17	179	60	227	89	106	60	212	247	95	186	162	152	160	63	127	208	142	166	15	156	15	157	188	55	118	60	5	172	186	65	198	116	21	66	242	24	239	66	150	204	28	167	115	177	167	160	97	-60	6.25
13	54	26	90	17	180	60	227	6	150	60	203	103	76	186	86	55	128	63	127	210	157	45	85	33	184	163	232	60	117	188	250	60	25	65	198	116	21	66	242	24	239	66	150	197	131	168	40	177	253	36	154	-60	6
13	54	27	21	17	181	60	228	48	12	60	186	19	196	186	106	185	64	63	127	213	164	160	136	38	120	26	10	48	42	40	50	38	248	65	198	116	21	66	242	24	238	66	150	184	188	170	39	177	70	162	80	-60	6.25
13	54	27	52	17	182	60	228	125	168	60	183	204	247	186	173	255	192	63	127	213	244	169	77	164	131	4	54	41	144	45	9	61	202	65	198	116	21	66	242	24	238	66	150	178	150	170	22	177	67	162	183	-60	6
13	54	27	83	17	183	60	227	223	114	60	190	68	243	186	41	152	0	63	127	212	242	161	240	154	92	160	105	180	111	162	130	33	137	65	198	116	21	66	242	24	238	66	150	182	190	170	142	177	12	161	113	-60	5.75
13	54	28	14	17	184	60	228	225	64	60	200	81	121	186	138	169	192	63	127	210	203	45	205	157	246	165	177	58	223	31	193	61	230	65	198	116	21	66	242	24	238	66	150	181	232	170	175	176	224	29	34	-60	6.5
13	54	28	45	17	185	60	228	193	22	60	189	219	227	186	72	113	128	63	127	212	210	23	203	40	206	41	122	186	92	56	100	183	127	65	198	116	21	66	242	24	238	66	150	175	164	172	233	176	33	163	165	-60	6.25
13	54	28	76	17	186	60	232	91	148	60	183	147	111	186	45	195	192	63	127	213	42	162	212	161	86	168	66	51	139	181	233	182	131	65	198	116	21	66	242	24	238	66	150	162	165	172	36	176	105	156	235	-60	6
13	54	29	7	17	187	60	233	187	72	60	199	250	227	185	53	176	0	63	127	209	200	159	59	159	246	161	112	182	39	50	206	49	239	65	198	116	21	66	242	24	238	66	150	155	217	172	207	176	75	163	159	-61	7.25
13	54	29	39	17	188	60	235	207	154	60	194	107	193	186	39	205	192	63	127	210	94	25	96	155	131	40	97	184	175	60	91	64	66	65	198	116	21	66	242	24	238	66	150	153	82	173	183	176	1	24	238	-62	6.25
13	54	29	69	17	189	60	236	191	120	60	182	160	190	185	62	180	0	63	127	212	87	40	21	36	255	37	136	168	219	171	255	185	11	65	198	116	22	66	242	24	238	66	150	149	239	174	39	175	48	163	191	-62	6.25
13	54	30	1	17	190	60	235	206	122	60	172	89	171	185	144	116	0	63	127	214	87	170	128	30	203	158	119	46	147	190	95	55	39	65	198	116	22	66	242	24	238	66	150	146	67	174	149	175	94	164	74	-63	5.75
13	54	30	32	17	191	60	235	77	216	60	176	196	31	57	75	191	0	63	127	213	179	35	17	32	6	36	13	183	87	58	34	187	179	65	198	116	22	66	242	24	238	66	150	153	34	173	252	174	70	131	155	-63	5.5
13	54	30	63	17	192	60	234	129	222	60	172	182	120	185	161	118	128	63	127	214	146	164	211	35	181	36	102	48	168	57	149	181	97	65	198	116	22	66	242	24	238	66	150	150	124	174	238	173	111	159	34	-63	6
13	54	30	94	17	193	60	234	170	126	60	162	131	130	186	55	253	0	63	127	216	51	36	129	36	81	37	81	41	215	60	38	61	245	65	198	116	22	66	242	24	238	66	150	147	146	175	1	172	223	35	142	-63	6.25
13	54	31	25	17	194	60	236	73	202	60	166	217	108	56	107	88	0	63	127	215	36	40	98	166	78	149	136	184	223	61	20	188	232	65	198	116	22	66	242	24	238	66	150	152	222	174	98	172	178	27	162	-63	6.25
13	54	31	56	17	195	60	236	239	230	60	190	93	211	185	139	231	128	63	127	210	226	170	54	164	9	39	56	182	98	58	115	179	58	65	198	116	22	66	242	24	238	66	150	151	25	174	178	172	61	28	76	-62	5.5
13	54	31	87	17	196	60	237	172	40	60	200	45	33	184	122	172	0	63	127	208	214	160	103	161	55	30	236	47	103	55	101	64	60	65	198	116	23	66	242	24	238	66	150	149	235	175	212	172	89	36	11	-63	6
13	54	32	18	17	197	60	238	46	38	60	188	62	160	58	5	211	0	63	127	210	251	26	176	40	184	159	113	53	92	178	12	52	131	65	198	116	23	66	242	24	238	66	150	143	55	176	8	171	38	140	138	-63	6.25
13	54	32	49	17	198	60	237	11	224	60	160	187	16	185	154	250	0	63	127	215	240	43	175	40	98	38	24	180	58	169	188	61	1	65	198	116	23	66	242	24	238	66	150	147	1	176	189	170	234	36	14	-63	5.75
13	54	32	80	17	199	60	237	84	110	60	127	233	116	186	22	220	128	63	127	220	127	170	101	35	183	157	151	176	246	58	94	183	132	65	198	116	23	66	242	24	238	66	150	144	245	176	198	169	52	155	246	-64	6
13	54	33	12	17	200	60	239	250	124	60	83	223	216	57	3	46	0	63	127	222	102	28	195	40	140	37	233	181	198	58	124	188	180	65	198	116	23	66	242	24	238	66	150	139	218	176	127	169	168	150	177	-63	5.75
13	54	33	42	17	201	60	239	210	200	60	82	114	44	185	138	178	128	63	127	222	130	39	97	39	166	156	56	53	144	187	28	185	119	65	198	116	23	66	242	24	238	66	150	136	43	176	45	168	188	159	57	-63	5.5
13	54	33	73	17	202	60	239	87	226	60	61	9	238	57	242	7	0	63	127	223	167	168	93	38	155	30	229	185	44	43	64	188	149	65	198	116	23	66	242	24	238	66	150	132	173	176	171	168	176	20	215	-64	6
13	54	34	5	17	203	60	241	58	192	60	47	215	191	57	151	202	0	63	127	223	207	149	40	25	6	168	48	55	94	53	248	53	115	65	198	116	23	66	242	24	238	66	150	124	175	176	157	168	54	158	174	-63	5.75
13	54	34	35	17	204	60	241	56	50	60	42	64	118	56	89	44	0	63	127	224	13	168	226	160	131	24	176	166	172	178	178	61	117	65	198	116	23	66	242	24	238	66	150	117	231	176	195	168	145	160	110	-63	5.75
13	54	34	67	17	205	60	241	220	10	60	36	12	50	57	241	11	0	63	127	224	37	28	180	35	9	36	235	180	221	56	15	186	225	65	198	116	23	66	242	24	238	66	150	109	10	176	195	167	93	163	38	-63	5.25
13	54	34	98	17	206	60	241	94	24	60	25	59	192	184	169	198	0	63	127	224	177	169	77	32	226	33	37	175	179	54	41	183	91	65	198	116	23	66	242	24	238	66	150	104	165	177	2	165	70	163	80	-65	5.75
13	54	35	29	17	207	60	240	239	220	60	31	207	249	57	7	215	0	63	127	224	138	168	203	144	172	37	166	187	227	56	81	178	43	65	198	116	23	66	242	24	237	66	150	101	101	176	237	167	58	157	206	-63	5.75
13	54	35	60	17	208	60	241	117	10	60	31	150	192	186	70	174	64	63	127	224	103	41	212	141	96	169	70	52	172	186	253	184	109	65	198	116	23	66	242	24	237	66	150	97	47	177	50	166	75	166	47	-61	6.75
13	54	35	91	17	209	60	241	73	254	60	36	76	106	57	217	158	0	63	127	224	70	164	77	38	165	157	60	177	207	54	25	186	74	65	198	116	24	66	242	24	237	66	150	92	212	176	232	165	214	162	141	-64	5.75
13	54	36	22	17	210	60	241	132	160	60	27	252	4	186	87	212	128	63	127	224	134	30	38	42	8	30	80	169	91	190	68	185	88	65	198	116	24	66	242	24	237	66	150	87	126	177	159	167	79	168	26	-62	6.25
13	54	36	53	17	211	60	239	158	124	59	216	232	139	185	13	76	0	63	127	226	136	40	65	20	136	154	153	184	104	56	13	187	80	65	198	116	24	66	242	24	237	66	150	85	228	178	20	164	79	166	211	-66	5.75
13	54	36	85	17	212	60	241	225	134	59	194	240	52	185	22	96	0	63	127	226	70	40	147	164	235	24	18	56	174	55	193	63	139	65	198	116	24	66	242	24	237	66	150	70	75	177	101	164	230	165	128	-65	5.75
13	54	37	16	17	213	60	242	181	196	60	11	18	162	55	60	0	0	63	127	224	226	30	133	158	163	159	230	56	44	166	67	56	169	65	198	116	24	66	242	24	237	66	150	95	109	177	3	166	39	162	6	-61	6.25
13	54	37	46	17	214	60	240	235	0	60	50	92	13	186	144	176	32	63	127	223	188	170	202	155	24	31	146	176	190	188	49	59	6	65	198	116	24	66	242	24	237	66	150	84	222	177	146	165	89	165	53	-61	6.25
13	54	37	78	17	215	60	242	63	116	60	34	176	146	186	136	9	224	63	127	224	21	30	68	37	148	36	50	178	39	58	248	185	173	65	198	116	24	66	242	24	237	66	150	71	138	178	86	163	114	167	101	-63	5.5
13	54	38	8	17	216	60	241	142	182	59	252	69	160	186	38	132	192	63	127	225	141	34	81	37	224	26	202	43	244	58	255	182	91	65	198	116	24	66	242	24	237	66	150	66	193	178	105	160	29	168	33	-60	5.5
13	54	38	40	17	217	60	241	53	226	59	207	64	39	183	57	144	0	63	127	226	70	165	139	152	96	168	14	178	37	44	30	183	34	65	198	116	24	66	242	24	237	66	150	62	248	178	67	164	52	164	127	-61	6
13	54	38	71	17	218	60	244	223	154	59	200	64	247	185	201	150	0	63	127	225	124	171	228	156	172	40	110	188	151	178	32	58	56	65	198	116	24	66	242	24	237	66	150	58	131	178	48	163	208	166	115	-63	5.5
13	54	39	2	17	219	60	246	105	96	59	173	62	114	185	218	162	128	63	127	225	113	154	196	163	82	164	83	147	87	40	82	182	3	65	198	116	24	66	242	24	237	66	150	50	122	178	164	164	211	167	92	-62	6.5
13	54	39	33	17	220	60	245	189	74	59	89	121	168	185	233	46	0	63	127	226	40	35	44	41	196	8	0	171	55	179	47	186	155	65	198	116	23	66	242	24	237	66	150	33	234	179	31	163	4	169	110	-64	5.75
13	54	39	64	17	221	60	248	87	36	58	215	12	16	186	17	124	192	63	127	225	200	44	11	149	199	29	106	52	134	56	72	64	42	65	198	116	23	66	242	24	237	66	150	17	53	178	234	164	87	164	253	-65	5
13	54	39	95	17	222	60	248	105	76	59	86	107	46	185	253	97	0	63	127	225	132	161	53	164	191	166	233	56	232	183	158	53	247	65	198	116	24	66	242	24	237	66	150	44	204	177	205	165	44	163	233	-65	5.75
13	54	40	26	17	223	60	247	52	100	59	195	42	14	186	160	154	192	63	127	224	242	38	108	34	138	160	24	181	126	188	234	188	96	65	198	116	23	66	242	24	237	66	150	26	61	178	195	164	191	168	250	-65	5.25
13	54	40	57	17	224	60	248	91	96	59	197	216	232	56	251	48	0	63	127	224	176	161	159	36	123	166	51	58	26	178	81	55	169	65	198	116	23	66	242	24	237	66	150	13	241	178	207	164	120	166	71	-63	6
13	54	40	89	17	225	60	245	187	10	59	161	81	160	184	94	112	0	63	127	225	186	169	211	34	57	34	189	44	30	190	41	57	68	65	198	116	23	66	242	24	237	66	150	8	80	178	184	166	111	166	132	-65	5.25
13	54	41	19	17	226	60	244	24	156	59	118	0	14	185	183	228	0	63	127	226	113	166	146	40	76	29	231	177	119	55	199	188	25	65	198	116	24	66	242	24	237	66	150	17	137	178	158	161	142	151	77	-64	5.75
13	54	41	51	17	227	60	244	120	216	59	29	43	126	185	45	120	0	63	127	226	161	165	224	33	167	159	83	170	118	53	92	46	30	65	198	116	23	66	242	24	237	66	150	23	221	178	85	161	26	26	189	-64	5.5
13	54	41	82	17	228	60	243	153	34	59	102	126	140	185	164	131	0	63	127	226	159	170	109	160	120	41	188	180	237	51	47	61	164	65	198	116	23	66	242	24	237	66	150	31	123	177	182	163	139	36	19	-64	6
13	54	42	13	17	229	60	245	127	58	59	185	70	220	186	1	170	192	63	127	225	133	162	192	154	252	24	221	52	88	40	231	185	80	65	198	116	23	66	242	24	237	66	150	38	82	177	17	31	105	36	1	-64	5.25
13	54	42	44	17	230	60	251	54	104	60	39	148	106	186	15	190	128	63	127	221	190	165	254	166	60	29	58	54	250	56	210	184	55	65	198	116	24	66	242	24	237	66	150	37	121	176	111	36	115	31	16	-65	6
13	54	42	75	17	231	60	251	149	72	60	89	127	252	185	239	120	128	63	127	219	79	35	168	155	246	155	166	157	2	180	208	44	194	65	198	116	24	66	242	24	236	66	150	42	69	176	165	155	125	37	110	-66	5.25
13	54	43	6	17	232	60	254	177	36	60	101	105	51	57	151	155	0	63	127	217	232	165	223	33	36	32	31	54	234	58	248	182	41	65	198	116	24	66	242	24	236	66	150	45	247	176	217	32	119	33	253	-69	4.5
13	54	43	37	17	233	60	252	86	34	60	85	253	180	58	42	234	128	63	127	219	77	164	120	40	219	33	78	185	57	180	229	185	157	65	198	116	24	66	242	24	236	66	150	39	189	177	44	151	187	37	64	-66	5.5
13	54	43	68	17	234	60	249	172	130	60	45	156	168	185	166	155	128	63	127	221	226	167	167	35	5	19	249	45	213	61	111	182	31	65	198	116	24	66	242	24	236	66	150	60	254	176	119	36	61	37	7	-63	6
13	54	44	0	17	235	60	255	48	78	60	64	68	91	186	90	199	192	63	127	219	173	43	0	153	53	147	176	56	190	56	86	61	172	65	198	116	24	66	242	24	236	66	150	65	134	174	234	18	143	40	22	-67	5.5
13	54	44	31	17	236	61	2	94	216	60	97	234	180	186	18	41	64	63	127	216	142	34	37	40	43	160	218	55	56	182	74	52	15	65	198	116	24	66	242	24	236	66	150	52	67	175	23	140	225	33	31	-67	5.5
13	54	44	62	17	237	61	1	87	247	60	96	12	40	186	110	113	64	63	127	217	44	167	8	149	158	40	109	50	225	187	100	62	114	65	198	116	24	66	242	24	236	66	150	45	164	174	201	152	1	33	117	-64	5.75
13	54	44	93	17	238	61	0	211	188	60	108	255	250	186	23	102	0	63	127	216	183	165	99	164	186	155	30	185	86	57	89	186	185	65	198	116	24	66	242	24	236	66	150	31	198	173	196	36	20	154	237	-64	6
13	54	45	24	17	239	61	2	202	166	60	104	52	48	58	135	68	128	63	127	215	246	40	50	40	27	165	118	50	141	53	207	181	54	65	198	116	24	66	242	24	236	66	150	26	96	174	34	35	159	34	83	-65	5
13	54	45	55	17	240	61	1	120	101	60	106	28	76	57	176	157	0	63	127	216	144	166	207	156	180	40	76	188	39	189	29	185	56	65	198	116	24	66	242	24	236	66	150	26	67	173	93	33	3	163	31	-67	5.5
13	54	45	86	17	241	61	2	2	200	60	120	85	96	56	250	246	0	63	127	215	117	44	202	172	133	172	26	177	255	66	169	65	45	65	198	116	24	66	242	24	236	66	150	26	214	172	192	38	5	38	70	-61	5.75
13	54	46	17	17	242	60	240	67	88	60	146	60	161	59	99	168	48	63	127	216	248	176	147	175	111	42	167	188	23	64	184	184	217	65	198	116	24	66	242	24	236	66	150	19	133	168	38	181	162	155	72	-59	6
13	54	46	48	17	243	60	105	224	104	60	230	47	224	60	41	13	146	63	127	219	246	44	98	176	110	48	255	55	63	192	14	62	124	65	198	116	24	66	242	24	236	66	150	22	11	36	122	188	3	38	139	-56	6.75
13	54	46	80	17	244	188	19	63	220	61	21	187	137	60	79	169	28	63	127	204	74	52	54	168	128	49	133	57	121	192	138	53	176	65	198	116	23	66	242	24	236	66	150	20	0	44	53	190	186	38	122	-55	6.25
13	54	47	10	17	245	189	64	241	66	60	243	176	61	60	131	187	142	63	127	145	191	148	14	49	107	52	36	56	188	177	122	61	15	65	198	116	20	66	242	24	237	66	150	18	168	47	111	192	211	37	251	-67	5
13	54	47	42	17	246	189	172	162	128	186	222	70	70	60	111	36	72	63	127	15	170	180	22	49	143	46	132	62	68	189	143	50	110	65	198	116	18	66	242	24	237	66	150	20	171	53	75	194	92	39	102	-57	6.25
13	54	47	73	17	247	189	151	247	78	188	226	248	183	60	139	177	44	63	127	40	141	46	237	45	44	177	132	53	70	188	209	185	41	65	198	116	14	66	242	24	238	66	150	36	158	56	24	195	214	42	181	-64	5.25
13	54	48	4	17	248	189	47	133	27	188	240	122	213	60	110	196	52	63	127	160	145	41	149	176	78	176	51	190	42	182	179	64	9	65	198	116	9	66	242	24	239	66	150	52	43	55	119	196	199	46	21	-51	6.75
13	54	48	35	17	249	188	196	181	172	188	242	39	9	60	130	139	158	63	127	200	35	160	42	32	200	169	218	182	163	192	153	60	155	65	198	116	3	66	242	24	240	66	150	80	134	51	224	197	190	47	1	-49	6.25
13	54	48	66	17	250	187	216	90	88	189	25	127	245	60	105	140	224	63	127	201	226	51	28	172	197	177	227	189	139	187	43	63	246	65	198	115	252	66	242	24	242	66	150	100	51	49	242	198	96	46	185	-50	6
13	54	48	97	17	251	60	161	62	178	188	162	156	174	60	188	37	102	63	127	213	27	52	57	181	19	173	160	192	111	197	6	192	192	65	198	115	243	66	242	24	243	66	150	148	210	160	127	199	73	48	34	-57	6.75
13	54	49	28	17	252	61	6	59	3	185	153	178	96	60	58	176	174	63	127	216	140	184	39	176	57	172	187	55	232	190	101	69	24	65	198	115	233	66	242	24	244	66	150	194	253	179	145	200	19	44	221	-60	6.5
13	54	49	60	17	253	61	24	148	213	60	228	189	132	60	193	101	175	63	127	166	170	57	26	173	7	21	25	60	52	188	112	58	30	65	198	115	222	66	242	24	246	66	150	241	54	180	239	200	113	49	66	-61	6.25
13	54	49	91	17	254	60	250	221	132	61	39	158	82	60	55	197	182	63	127	166	58	181	193	41	190	43	133	54	6	195	31	184	62	65	198	115	210	66	242	24	248	66	151	44	165	181	156	200	222	48	179	-56	6.5
13	54	50	21	17	255	60	177	251	102	60	232	73	64	60	97	141	156	63	127	207	249	177	248	44	253	37	231	192	211	196	70	160	152	65	198	115	197	66	242	24	250	66	151	73	17	180	75	201	55	48	18	-57	6.75
13	54	50	53	18	0	60	188	22	72	60	128	236	173	60	162	249	15	63	127	217	162	51	251	48	20	172	108	53	163	190	213	192	95	65	198	115	183	66	242	24	252	66	151	156	90	177	234	201	134	50	128	-56	6.5
13	54	50	84	18	1	60	204	154	50	60	184	83	167	60	35	181	70	63	127	215	177	51	129	171	89	36	245	58	123	53	211	66	196	65	198	115	169	66	242	24	254	66	151	236	193	178	13	201	202	49	145	-60	6
13	54	51	15	18	2	60	166	185	20	60	129	70	196	60	161	37	248	63	127	221	151	164	155	52	38	159	212	58	109	192	160	184	80	65	198	115	153	66	242	25	0	66	152	85	203	178	136	202	24	51	214	-60	5.75
13	54	51	46	18	3	60	168	115	234	187	128	53	173	60	161	95	129	63	127	228	240	43	116	51	20	172	125	61	95	192	49	184	156	65	198	115	137	66	242	25	2	66	152	149	173	178	14	202	92	51	133	-67	4.75
13	54	51	77	18	4	60	229	129	144	186	45	12	64	60	52	176	230	63	127	226	74	52	128	44	101	172	13	189	223	192	134	182	73	65	198	115	120	66	242	25	5	66	153	8	133	180	69	202	151	51	64	-57	7
13	54	52	8	18	5	61	0	231	59	59	58	100	145	60	98	217	142	63	127	217	0	172	199	171	116	159	109	54	34	39	164	172	219	65	198	115	103	66	242	25	7	66	153	147	168	181	188	202	213	51	46	-57	6
13	54	52	39	18	6	61	16	64	155	60	51	4	190	60	88	6	70	63	127	205	190	52	36	176	166	159	135	52	131	187	102	64	1	65	198	115	85	66	242	25	10	66	154	17	121	182	11	203	7	52	209	-60	6
13	54	52	70	18	7	61	11	252	121	60	179	86	196	59	200	197	48	63	127	200	198	172	155	33	47	163	221	189	163	191	29	57	50	65	198	115	66	66	242	25	13	66	154	60	35	183	68	203	70	51	107	-63	6.5
13	54	53	1	18	8	61	9	233	158	60	188	91	28	60	129	159	254	63	127	193	77	54	128	49	162	36	40	184	172	192	234	62	28	65	198	115	46	66	242	25	16	66	154	198	112	183	56	203	114	52	124	-71	1.5
13	54	53	32	18	9	61	16	117	49	60	200	153	210	186	21	127	128	63	127	195	143	178	151	171	206	40	150	184	190	191	95	70	204	65	198	115	25	66	242	25	18	66	155	27	149	182	219	203	168	50	231	-69	4
13	54	53	64	18	10	61	15	82	196	60	136	197	150	60	117	252	136	63	127	199	89	178	1	52	78	169	189	58	217	177	44	197	6	65	198	115	5	66	242	25	21	66	155	159	53	182	146	203	216	51	206	-69	4.25
13	54	53	94	18	11	61	8	105	68	59	252	109	88	60	129	121	108	63	127	209	130	179	226	46	11	168	86	186	160	183	190	198	249	65	198	114	240	66	242	25	24	66	155	238	104	182	36	204	6	50	187	-63	5.75
13	54	54	26	18	12	61	12	221	45	59	183	179	106	60	38	54	8	63	127	212	213	57	243	39	219	38	254	51	253	194	114	72	217	65	198	114	219	66	242	25	27	66	156	111	180	182	179	204	21	53	190	-63	6.25
13	54	54	57	18	13	61	24	248	53	59	9	137	162	60	1	14	32	63	127	208	30	172	212	48	81	158	247	56	126	187	245	60	0	65	198	114	197	66	242	25	31	66	157	25	107	183	175	204	41	51	222	-66	5.5
13	54	54	88	18	14	61	49	193	9	60	40	203	220	59	2	52	0	63	127	190	167	181	165	178	44	168	193	185	207	185	1	185	217	65	198	114	175	66	242	25	34	66	157	136	23	184	16	204	63	50	142	-67	5.5
13	54	55	19	18	15	61	56	24	186	60	140	4	8	59	204	43	80	63	127	178	239	33	225	174	110	40	86	172	171	193	151	180	11	65	198	114	152	66	242	25	37	66	157	205	227	184	89	204	82	47	74	-67	6
13	54	55	50	18	16	61	53	99	248	60	183	94	167	59	157	237	136	63	127	174	131	41	183	41	107	169	68	60	236	45	148	60	206	65	198	114	129	66	242	25	40	66	158	61	172	184	51	204	98	52	30	-66	5.5
13	54	55	81	18	17	61	52	113	28	60	236	134	56	59	242	179	72	63	127	163	61	164	35	39	113	164	110	187	163	186	137	65	66	65	198	114	105	66	242	25	43	66	158	166	142	184	41	204	114	52	191	-66	5.25
13	54	56	12	18	18	61	46	253	114	60	232	165	185	59	225	113	80	63	127	168	42	54	166	34	59	167	143	62	138	188	90	66	139	65	198	114	82	66	242	25	47	66	159	30	205	183	101	204	121	54	88	-67	5
13	54	56	44	18	19	61	36	66	103	60	159	36	168	188	84	35	172	63	127	185	105	184	36	42	197	40	2	148	139	69	23	56	102	65	198	114	57	66	242	25	50	66	159	85	42	182	205	204	120	49	28	-66	5.25
13	54	56	75	18	20	61	35	153	109	59	219	93	38	58	196	168	0	63	127	202	44	56	220	175	65	47	67	190	40	192	144	69	170	65	198	114	34	66	242	25	53	66	159	187	107	182	55	204	115	52	95	-67	5
13	54	57	6	18	21	61	51	250	248	60	78	166	165	57	193	195	0	63	127	187	125	182	242	179	102	167	75	189	88	194	238	66	101	65	198	114	10	66	242	25	57	66	160	21	68	182	108	204	121	51	248	-68	4.75
13	54	57	37	18	22	61	56	169	235	60	136	48	208	187	206	170	144	63	127	179	1	172	224	169	155	39	23	186	105	64	5	50	165	65	198	113	242	66	242	25	60	66	160	94	8	182	173	204	111	48	253	-74	-1
13	54	57	68	18	23	61	53	98	7	60	65	14	156	186	211	248	192	63	127	187	20	182	215	166	122	164	139	180	115	190	118	67	40	65	198	113	218	66	242	25	64	66	160	146	116	182	18	204	111	49	21	-74	0
13	54	57	99	18	24	61	62	104	45	60	152	108	110	58	227	61	0	63	127	173	181	179	133	176	175	172	104	53	164	52	122	200	216	65	198	113	195	66	242	25	67	66	160	226	75	181	111	204	94	49	174	-72	2.5
13	54	58	30	18	25	61	52	17	231	60	151	65	10	188	44	3	128	63	127	177	217	181	3	45	159	28	15	186	225	178	66	69	251	65	198	113	172	66	242	25	70	66	161	46	69	181	180	204	71	52	105	-75	-1.25
13	54	58	92	18	27	61	55	225	16	60	139	188	140	187	149	166	72	63	127	179	183	43	24	165	70	38	220	56	58	57	239	60	147	65	198	113	127	66	242	25	76	66	161	14	123	181	75	204	35	50	106	-76	-1.75
13	54	59	55	18	29	61	69	49	17	60	85	238	252	188	77	227	124	63	127	169	63	185	183	180	2	34	57	175	159	57	60	188	82	65	198	113	84	66	242	25	82	66	160	250	3	180	38	203	238	171	95	-77	-4.25
13	54	59	85	18	30	61	96	122	55	57	123	70	224	188	47	160	176	63	127	157	27	174	157	45	212	172	153	60	144	58	160	189	191	65	198	113	63	66	242	25	85	66	160	201	205	180	37	203	190	37	175	-75	-0.75
13	55	0	17	18	31	61	82	154	174	60	168	126	87	188	104	38	152	63	127	148	220	34	16	50	92	161	242	61	204	59	180	63	43	65	198	113	42	66	242	25	88	66	160	143	251	180	155	203	149	45	114	-73	1.75
13	55	0	48	18	32	61	76	191	59	60	215	22	153	188	111	83	252	63	127	144	116	181	8	168	22	42	63	60	180	62	21	63	251	65	198	113	22	66	242	25	91	66	160	96	24	178	139	203	94	40	52	-75	-2
13	55	0	79	18	33	61	64	13	255	60	185	178	230	188	21	199	84	63	127	164	82	50	105	42	113	32	103	52	187	61	239	179	100	65	198	113	3	66	242	25	94	66	160	40	148	175	140	203	30	45	25	-77	-7.5
13	55	1	10	18	34	61	69	51	185	60	242	157	76	187	52	57	112	63	127	150	251	62	253	168	146	174	153	178	194	176	215	71	42	65	198	112	241	66	242	25	96	66	159	242	11	40	100	202	205	51	127	-74	0.25
13	55	1	72	18	36	61	70	4	40	59	111	96	242	188	175	7	206	63	127	163	248	182	127	48	86	174	37	108	235	33	56	134	80	84	198	112	206	66	242	25	101	66	159	90	6	169	119	202	100	160	251	-77	-6.5
13	55	2	3	18	37	61	87	80	121	60	76	208	184	188	217	84	212	63	127	137	43	179	179	167	45	38	196	182	188	66	29	192	143	65	198	112	189	66	242	25	103	66	159	18	228	172	225	202	31	174	2	-77	-7
13	55	2	34	18	38	61	93	157	146	60	120	185	164	188	51	29	56	63	127	148	134	43	130	175	229	16	98	184	87	54	199	52	18	65	198	112	173	66	242	25	106	66	158	216	27	170	154	201	230	43	101	-76	-2
13	55	2	97	18	40	61	90	45	112	60	185	5	127	188	136	138	48	63	127	137	26	48	121	37	247	33	109	64	8	62	157	52	65	65	198	112	143	66	242	25	110	66	158	38	253	22	50	201	117	27	159	-77	-4.25
13	55	3	28	18	41	61	84	34	12	60	235	128	118	188	131	46	212	63	127	132	133	171	17	179	102	40	15	52	250	66	203	60	18	65	198	112	129	66	242	25	112	66	157	223	83	46	21	201	57	16	36	-75	-1.75
13	55	3	59	18	42	61	73	136	67	61	2	145	129	188	160	141	254	63	127	130	172	48	25	39	4	41	153	188	120	186	19	55	247	65	198	112	116	66	242	25	114	66	157	158	230	46	46	200	241	171	174	-75	-0.75
13	55	3	90	18	43	61	59	30	199	61	1	229	144	188	169	83	246	63	127	140	142	178	137	164	76	39	160	188	15	66	66	62	0	65	198	112	104	66	242	25	115	66	157	93	191	50	7	200	177	172	63	-75	-1
13	55	4	52	18	45	61	51	237	187	60	237	139	122	188	139	182	148	63	127	173	159	48	234	38	53	165	86	184	73	63	124	190	148	65	198	112	81	66	242	25	119	66	156	166	151	52	119	200	22	168	109	-77	-10.75
13	55	4	83	82	106	125	64	81	194	60	156	118	53	188	148	109	236	63	127	160	253	48	236	29	82	167	199	49	173	65	213	57	131	65	198	112	70	66	242	25	120	66	156	90	215	60	170	71	235	167	99	-77	-8.75
13	55	5	14	18	47	61	62	181	137	60	170	75	254	188	159	242	54	63	127	158	62	177	128	42	219	161	105	53	205	53	116	181	171	65	198	112	60	66	242	25	122	66	156	65	37	52	44	199	111	37	151	-76	-2
13	55	5	45	18	48	61	55	4	20	60	180	120	12	188	139	103	154	63	127	165	34	41	73	159	13	163	230	35	50	150	178	174	145	65	198	112	51	66	242	25	123	66	156	7	137	52	101	199	0	42	20	-77	-8.5
13	55	6	7	18	50	61	49	244	169	60	229	156	153	188	100	222	144	63	127	161	245	40	5	145	192	42	57	48	46	64	247	62	84	65	198	112	34	66	242	25	125	66	155	146	152	53	98	198	68	43	143	-77	-9.25
13	55	6	39	18	51	61	33	185	180	60	213	235	125	188	118	122	104	63	127	175	29	173	197	226	242	41	244	166	138	55	8	183	190	65	198	112	27	98	210	27	127	66	155	86	255	53	253	197	250	41	33	-78	-10.25
13	55	6	70	18	52	61	18	172	205	60	202	58	222	188	72	248	16	63	127	189	16	40	56	169	150	40	23	176	189	48	7	185	185	65	198	112	20	66	242	25	127	66	155	12	108	54	86	197	165	39	180	-77	-5.75
13	55	7	1	18	53	61	20	254	22	60	216	252	197	188	123	143	108	63	127	181	227	178	82	172	68	165	95	179	221	56	185	188	57	65	198	112	13	66	242	25	129	66	154	203	63	54	246	197	88	166	135	-77	-9
13	55	7	63	18	55	60	203	106	228	61	30	71	252	188	53	8	224	63	127	182	215	157	193	164	18	46	208	181	192	54	242	59	228	65	198	112	1	66	242	25	130	66	154	88	128	56	2	196	178	36	132	-76	-3.5
13	55	8	57	18	58	187	2	34	0	60	17	75	245	187	197	132	160	63	127	252	28	50	140	172	37	174	186	47	53	189	134	52	45	65	198	111	241	66	242	25	133	66	153	215	14	57	43	196	32	32	115	-77	-4.5
13	55	8	87	18	59	60	19	134	224	60	134	145	160	188	2	49	196	63	127	242	113	169	197	43	125	34	163	59	124	166	162	181	107	65	198	111	236	66	242	25	134	66	153	182	241	56	55	196	2	32	252	-76	-3.75
13	55	9	19	18	60	59	209	203	176	60	173	74	141	187	244	188	160	63	127	238	46	45	183	168	215	29	24	188	78	59	36	181	173	65	198	111	232	66	242	25	134	66	153	128	186	55	243	195	164	30	112	-77	-6.5
13	55	9	50	18	61	59	109	167	224	60	197	56	55	187	192	40	208	63	127	235	116	43	255	172	201	33	233	60	124	191	234	57	238	65	198	111	227	66	242	25	135	66	153	91	120	56	59	195	116	167	62	-77	-5.25
13	55	9	81	18	62	186	183	78	192	60	197	157	237	187	18	183	48	63	127	236	181	176	242	42	126	44	7	46	102	64	94	187	147	65	198	111	223	66	242	25	136	66	153	56	132	56	143	195	54	164	51	-77	-5
13	55	10	12	18	63	187	210	92	40	60	220	235	165	187	174	182	224	63	127	229	226	170	54	140	111	43	48	166	88	60	95	57	97	65	198	111	219	66	242	25	137	66	153	20	170	56	135	194	235	165	92	-76	-2.75
13	55	10	43	18	64	188	95	114	124	60	233	183	109	187	133	195	224	63	127	222	176	44	74	35	179	161	80	61	52	191	124	57	34	65	198	111	215	66	242	25	137	66	152	224	231	56	239	194	158	168	8	-76	-3.5
13	55	10	74	18	65	188	214	144	14	60	199	119	203	187	62	204	0	63	127	213	210	45	20	49	152	48	136	49	222	60	152	54	181	65	198	111	211	18	167	76	223	215	152	80	138	168	136	155	96	2	164	-77	-11.25
13	55	11	5	18	66	189	30	97	66	60	4	103	74	186	99	93	192	63	127	204	214	169	190	163	40	169	24	186	121	63	11	190	47	65	198	111	208	66	242	25	139	66	152	159	46	57	31	194	8	170	112	-76	-4.75
13	55	11	36	18	67	188	207	174	236	59	157	251	217	58	154	194	224	63	127	234	35	41	206	167	188	177	47	180	152	187	183	188	1	65	198	111	205	66	242	25	139	66	152	122	202	57	20	193	183	172	144	-77	-5
13	55	11	67	18	68	187	190	59	152	60	27	103	231	187	52	0	32	63	127	251	182	147	9	163	54	174	1	184	153	58	102	53	66	65	198	111	202	66	242	25	140	66	152	83	219	56	79	193	91	171	79	-76	-4.5
13	55	11	98	18	69	59	249	4	144	60	101	69	119	187	106	43	128	63	127	247	71	179	137	167	11	171	113	182	22	60	139	56	135	65	198	111	199	66	242	25	141	66	152	46	23	55	72	193	41	173	4	-76	-2
13	55	12	30	18	70	60	69	59	56	60	114	125	231	59	174	25	64	63	127	243	40	52	91	39	252	162	30	184	169	48	237	52	243	65	198	111	196	66	242	25	141	66	152	19	27	54	72	192	216	169	230	-77	-3.25
13	55	12	60	18	71	60	119	233	236	60	96	74	194	187	198	19	40	63	127	241	44	179	133	33	84	161	86	177	131	63	112	61	158	65	198	111	193	66	242	25	141	66	152	11	76	53	188	192	167	169	196	-75	-1.5
13	55	12	92	18	72	60	142	177	32	60	10	99	158	187	162	63	128	63	127	242	238	161	7	39	198	29	150	52	61	63	103	189	139	65	198	111	191	66	242	25	142	66	151	250	36	52	125	192	70	157	100	-76	-3.75
13	55	13	23	18	73	61	0	53	242	60	21	205	56	59	16	64	208	63	127	221	1	165	217	165	239	176	52	164	240	62	202	180	228	65	198	111	188	66	242	25	142	66	151	236	50	52	183	192	20	166	24	-76	-3.5
13	55	13	54	18	74	61	69	150	82	60	153	175	156	187	136	243	176	63	127	167	152	28	128	172	59	175	110	55	119	66	109	58	8	65	198	111	186	66	242	25	143	66	151	226	72	52	79	191	178	162	204	-77	-5.5
13	55	13	85	18	75	61	80	227	34	60	208	46	52	187	154	170	64	63	127	148	206	42	17	163	159	18	144	166	249	62	76	182	170	65	198	111	183	66	242	25	143	66	151	221	132	51	19	191	54	32	211	-75	-1.25
13	55	14	16	18	76	61	41	87	181	60	210	59	107	187	66	48	160	63	127	178	22	173	8	38	182	45	233	52	160	56	178	188	47	65	198	111	181	66	242	25	143	66	151	217	91	50	95	190	191	161	53	-76	-4.5
13	55	14	47	18	77	60	198	207	76	60	138	52	142	187	56	218	224	63	127	227	28	164	140	47	196	46	75	59	62	185	61	191	42	65	198	111	179	66	242	25	144	66	151	194	109	50	46	190	59	168	217	-77	-7.5
13	55	14	78	18	78	60	85	75	32	60	2	238	242	186	215	102	224	63	127	248	71	47	14	42	199	39	59	55	185	56	213	60	205	65	198	111	178	66	242	25	144	66	151	181	134	51	173	189	162	160	100	-77	-3.75
13	55	15	9	18	79	60	126	206	252	59	174	211	96	187	178	104	224	63	127	246	47	46	221	45	28	157	253	177	129	59	61	172	115	65	198	111	176	66	242	25	144	66	151	174	209	51	53	188	239	158	135	-77	-4.5
13	55	15	41	18	80	60	202	157	184	187	113	40	20	187	145	203	24	63	127	234	222	164	89	47	184	172	54	57	71	185	44	55	79	65	198	111	175	66	242	25	144	66	151	172	170	49	56	187	206	41	73	-77	-6.25
13	55	15	72	18	81	61	12	87	123	187	144	193	150	188	20	76	68	63	127	214	54	169	205	172	50	172	236	61	28	61	139	176	198	65	198	111	174	66	242	25	144	66	151	145	149	52	40	185	31	169	60	-76	-4.25
13	55	16	3	18	82	61	37	29	205	59	54	207	170	187	135	206	64	63	127	201	236	150	122	163	230	165	107	57	193	33	167	184	164	65	198	111	173	66	242	25	145	66	151	136	35	52	38	181	218	170	231	-76	-2.75
13	55	16	34	18	83	61	47	4	164	59	182	246	199	187	230	23	144	63	127	193	129	172	62	153	194	164	248	183	100	62	234	181	150	65	198	111	173	66	242	25	145	66	151	129	164	49	249	177	70	167	40	-76	-3
13	55	16	65	18	84	61	49	149	104	185	229	235	176	187	137	177	248	63	127	193	207	173	241	167	225	35	52	183	237	58	232	63	20	65	198	111	173	66	242	25	145	66	151	123	130	49	222	174	242	164	233	-76	-2
13	55	16	96	18	85	61	53	113	28	188	15	196	39	186	190	182	0	63	127	189	20	40	117	33	130	163	163	55	202	183	143	180	101	65	198	111	173	66	242	25	145	66	151	115	146	49	115	173	90	162	84	-76	-2
13	55	17	27	18	86	61	55	56	156	187	223	189	115	187	25	149	128	63	127	188	181	168	108	168	151	151	132	172	63	57	245	52	54	65	198	111	173	66	242	25	145	66	151	106	254	50	151	172	203	165	243	-76	-2
13	55	17	58	18	87	61	57	123	53	184	44	31	0	186	176	212	96	63	127	188	183	165	225	171	190	161	16	44	186	55	131	61	115	65	198	111	173	66	242	25	145	66	151	101	115	50	229	172	246	164	15	-76	-2.25
13	55	17	89	18	88	61	58	160	241	59	245	226	125	186	184	183	192	63	127	190	11	164	46	169	30	33	190	172	161	183	17	178	149	65	198	111	173	66	242	25	145	66	151	95	167	50	119	172	96	166	252	-76	-2.75
13	55	18	20	18	89	61	59	124	184	60	129	39	60	186	185	10	128	63	127	179	26	42	56	168	205	162	251	56	125	186	41	48	83	65	198	111	173	66	242	25	145	66	151	86	111	49	180	172	32	161	166	-76	-2.5
13	55	18	51	18	90	61	58	239	125	60	161	200	119	186	234	135	192	63	127	174	211	162	61	165	176	165	39	172	118	49	93	55	26	65	198	111	173	66	242	25	145	66	151	78	241	48	192	170	83	164	146	-76	-2.75
13	55	18	83	18	91	61	58	6	117	60	142	25	22	186	224	39	96	63	127	178	106	42	100	37	11	158	1	52	40	178	48	176	210	65	198	111	173	66	242	25	145	66	151	71	145	47	239	168	130	166	78	-76	-2.5
13	55	19	14	18	92	61	58	105	176	60	164	22	190	186	36	27	0	63	127	174	238	46	142	35	55	29	169	55	155	184	208	56	71	65	198	111	173	66	242	25	145	66	151	65	34	48	215	168	194	33	218	-75	-2.5
13	55	19	45	18	93	61	60	223	229	60	221	207	104	186	120	180	64	63	127	162	54	169	102	37	17	30	146	179	161	184	208	175	132	65	198	111	173	66	242	25	144	66	151	55	26	47	31	168	234	161	217	-76	-3
13	55	19	76	18	94	61	60	73	212	60	199	43	1	187	12	240	176	63	127	167	47	33	179	40	124	36	24	49	141	56	9	62	140	65	198	111	173	66	242	25	144	66	151	55	235	42	222	165	23	25	196	-76	-2.75
13	55	20	7	18	95	61	59	226	125	60	153	203	142	187	105	7	240	63	127	175	14	156	167	37	216	166	40	57	47	180	76	48	20	65	198	111	173	66	242	25	144	66	151	51	2	43	80	160	11	165	68	-76	-2.5
13	55	20	38	18	96	61	61	22	115	60	154	30	66	186	34	255	0	63	127	174	134	45	66	161	1	165	101	44	116	190	206	34	98	65	198	111	173	66	242	25	144	66	151	45	164	45	108	22	135	164	65	-76	-3
13	55	20	69	18	97	61	60	209	229	60	150	148	8	186	134	227	160	63	127	175	57	150	219	35	231	36	54	180	107	181	16	189	1	65	198	111	173	66	242	25	144	66	151	42	3	41	28	19	139	165	53	-76	-2
13	55	21	0	18	98	61	61	36	130	60	128	13	248	186	191	79	64	63	127	178	4	169	79	36	65	156	106	32	82	189	79	56	220	65	198	111	174	66	242	25	144	66	151	42	81	41	21	25	223	162	149	-76	-2
13	55	21	32	18	99	61	61	49	154	60	114	227	188	186	173	7	192	63	127	178	202	38	33	149	221	35	214	180	182	179	140	188	231	65	198	111	174	66	242	25	144	66	151	48	226	42	164	37	118	163	202	-76	-1.75
13	55	21	62	18	100	61	60	235	85	60	124	184	106	186	201	49	128	63	127	178	97	168	84	161	36	161	145	180	177	188	170	54	66	65	198	111	174	66	242	25	144	66	151	54	41	41	140	37	29	150	205	-76	-2.25
13	55	21	93	18	101	61	61	150	113	60	131	150	116	186	153	33	192	63	127	177	65	160	124	157	111	160	113	40	225	184	103	187	24	65	198	111	174	66	242	25	144	66	151	49	111	40	16	39	185	158	121	-76	-2.25
13	55	22	25	18	102	61	61	249	65	60	126	100	146	186	169	81	224	63	127	177	131	26	22	39	143	30	0	56	108	182	2	47	38	65	198	111	174	66	242	25	144	66	151	48	30	39	46	39	51	31	112	-76	-2.5
13	55	22	55	18	103	61	60	175	0	60	115	180	214	186	140	91	96	63	127	179	37	41	184	160	189	169	142	51	38	175	10	184	33	65	198	111	174	66	242	25	144	66	151	52	156	38	135	41	202	157	188	-76	-2.25
13	55	22	87	18	104	61	61	130	98	60	118	255	138	186	54	179	0	63	127	178	90	163	103	35	182	160	90	180	30	185	242	189	16	65	198	111	174	66	242	25	144	66	151	54	230	38	171	41	44	32	109	-76	-2.25
13	55	23	18	18	105	61	61	212	121	60	101	179	34	186	144	78	32	63	127	179	27	31	85	32	34	162	153	37	17	57	0	49	10	65	198	111	174	66	242	25	144	66	151	57	150	33	83	43	51	31	24	-76	-2.5
13	55	23	49	18	106	61	61	150	144	60	80	217	124	186	72	226	128	63	127	180	107	170	28	21	23	37	76	183	28	181	203	61	72	65	198	111	174	66	242	25	144	66	151	54	134	36	45	42	118	34	214	-76	-2.25
13	55	23	80	18	107	61	62	0	184	60	89	154	214	185	207	121	128	63	127	179	170	160	180	150	231	34	216	178	38	61	31	190	57	65	198	111	174	66	242	25	144	66	151	55	178	37	95	44	24	150	105	-76	-2
13	55	24	11	18	108	61	61	249	2	60	93	56	80	186	73	197	128	63	127	179	123	164	13	33	142	28	246	56	246	55	4	53	140	65	198	111	174	66	242	25	144	66	151	57	246	38	113	44	134	24	182	-76	-2.25
13	55	24	42	18	109	61	61	206	111	60	92	50	115	186	54	46	192	63	127	179	171	139	5	29	19	38	26	187	216	59	56	188	241	65	198	111	175	66	242	25	144	66	151	50	252	32	103	44	58	156	160	-76	-2
13	55	24	73	18	110	61	62	19	133	60	92	229	72	186	159	19	0	63	127	179	101	39	253	37	53	30	187	179	196	185	174	180	211	65	198	111	175	66	242	25	144	66	151	54	147	34	27	44	70	156	203	-76	-2.75
13	55	25	4	18	111	61	62	91	188	60	99	5	78	186	109	71	192	63	127	178	223	162	111	28	119	37	13	49	242	186	109	52	9	65	198	111	175	66	242	25	144	66	151	53	210	34	245	44	88	158	238	-76	-2.25
13	55	25	35	18	112	61	62	151	92	60	104	238	173	186	72	123	0	63	127	178	94	30	84	5	253	165	58	49	224	191	13	53	220	65	198	111	175	66	242	25	144	66	151	52	221	33	5	44	52	156	180	-76	-2.5
13	55	25	66	18	113	61	61	45	86	60	101	200	82	186	132	139	96	63	127	179	149	45	36	158	160	163	204	48	101	54	54	54	83	65	198	111	175	66	242	25	144	66	151	56	207	28	107	44	130	36	217	-76	-3
13	55	25	98	18	114	61	62	216	1	60	97	214	132	186	68	206	64	63	127	178	151	40	105	161	56	161	233	52	15	172	100	184	69	65	198	111	175	66	242	25	144	66	151	58	136	26	161	44	193	156	233	-76	-3
13	55	26	28	18	115	61	62	176	223	60	99	57	81	186	107	21	192	63	127	178	158	40	79	38	254	35	74	173	147	187	19	187	33	65	198	111	175	66	242	25	144	66	151	61	0	29	7	44	249	162	168	-76	-2.75
13	55	26	60	18	116	61	62	181	213	60	99	196	2	185	201	147	0	63	127	178	151	29	203	153	97	165	41	174	177	56	109	188	176	65	198	111	175	66	242	25	144	66	151	61	223	21	183	45	39	159	161	-76	-3.25
13	55	26	91	18	117	61	62	132	89	60	95	29	242	186	106	125	0	63	127	178	248	169	14	152	210	37	132	182	33	55	246	182	104	65	198	111	175	66	242	25	144	66	151	60	24	142	192	45	37	161	216	-76	-3
13	55	27	22	18	118	61	62	78	9	60	105	30	89	186	147	67	64	63	127	178	142	161	34	162	143	33	252	180	28	60	114	62	208	65	198	111	175	66	242	25	144	66	151	65	102	30	28	45	51	29	156	-77	-3.5
13	55	27	53	18	119	61	63	47	127	60	115	171	202	186	134	128	96	63	127	177	74	32	218	29	12	37	191	178	41	177	113	184	226	65	198	111	175	66	242	25	144	66	151	61	122	17	19	44	245	164	11	-76	-3.5
13	55	27	84	18	120	61	62	108	210	60	110	213	228	186	171	23	192	63	127	178	31	155	11	155	14	167	13	176	120	189	222	178	168	65	198	111	175	66	242	25	144	66	151	73	51	156	144	44	237	158	18	-76	-2.75
13	55	28	15	18	121	61	63	20	172	60	99	231	184	186	64	57	64	63	127	178	74	39	25	156	48	37	131	180	81	176	3	185	84	65	198	111	176	66	242	25	144	66	151	84	151	160	90	45	72	31	24	-76	-3.25
13	55	28	46	18	122	61	62	115	232	60	94	88	242	186	96	116	128	63	127	179	16	160	38	26	20	154	197	45	101	56	37	185	143	65	198	111	176	66	242	25	144	66	151	89	178	155	23	45	229	31	168	-76	-3.5
13	55	28	77	18	123	61	63	70	231	60	98	35	69	186	75	115	64	63	127	178	62	42	67	25	159	39	131	50	233	57	217	64	92	65	198	111	176	66	242	25	144	66	151	94	176	156	230	45	146	38	212	-76	-3
13	55	29	8	18	124	61	63	102	77	60	97	231	63	186	59	14	0	63	127	178	43	38	34	156	208	161	78	55	252	183	76	170	20	65	198	111	176	66	242	25	144	66	151	97	176	154	221	45	142	33	59	-76	-3.25
13	55	29	39	18	125	61	62	223	100	60	97	237	185	186	61	247	64	63	127	178	143	38	60	34	200	18	130	175	8	186	33	185	162	65	198	111	176	66	242	25	144	66	151	100	220	158	214	45	118	30	2	-76	-3.25
13	55	29	71	18	126	61	63	190	207	60	98	70	122	186	88	9	128	63	127	177	225	44	148	35	84	36	217	58	156	52	167	61	82	65	198	111	176	66	242	25	144	66	151	99	132	154	174	45	129	36	182	-76	-3.25
13	55	30	2	18	127	61	62	247	224	60	99	110	180	186	36	147	64	63	127	178	103	157	231	156	21	36	68	177	112	185	9	55	90	65	198	111	176	66	242	25	144	66	151	105	64	159	214	45	143	31	28	-76	-2.5
13	55	30	33	18	128	61	63	89	172	60	103	105	217	186	140	165	192	63	127	177	226	169	57	162	86	28	67	178	19	57	8	186	6	65	198	111	176	66	242	25	144	66	151	98	226	158	241	46	92	160	170	-76	-2.75
13	55	30	64	18	129	61	64	136	185	60	106	181	53	186	173	83	0	63	127	176	198	165	188	38	131	28	122	47	61	191	111	50	201	65	198	111	176	66	242	25	144	66	151	106	3	156	176	45	212	34	193	-76	-3
13	55	30	95	18	130	61	63	179	138	60	106	15	230	186	100	85	0	63	127	177	121	40	62	162	211	163	140	158	155	57	144	186	33	65	198	111	176	66	242	25	144	66	151	120	115	160	170	46	55	39	29	-76	-3
13	55	31	26	18	131	61	63	88	134	60	100	19	105	186	111	188	0	63	127	178	18	39	153	29	245	151	160	177	11	54	80	184	120	65	198	111	176	66	242	25	144	66	151	129	85	161	79	46	160	37	112	-76	-3.5
13	55	31	57	18	132	61	64	97	30	60	104	51	244	185	223	72	128	63	127	177	23	170	73	36	13	39	94	43	13	185	179	178	70	65	198	111	177	66	242	25	144	66	151	134	203	160	0	46	13	38	145	-76	-3
13	55	31	88	18	133	61	63	186	51	60	98	236	157	185	161	136	0	63	127	177	224	31	113	40	145	40	180	182	110	55	252	185	83	65	198	111	177	66	242	25	144	66	151	142	123	163	62	46	75	39	162	-77	-3
13	55	32	19	18	134	61	63	137	191	60	88	89	96	186	172	39	0	63	127	178	137	40	66	33	25	165	13	53	171	51	242	183	39	65	198	111	177	66	242	25	144	66	151	149	228	160	99	46	43	33	255	-76	-3.5
13	55	32	50	18	135	61	64	14	246	60	79	82	114	185	183	122	128	63	127	178	172	156	24	40	188	22	138	178	221	180	76	183	107	65	198	111	177	66	242	25	144	66	151	153	195	162	51	45	195	39	151	-76	-3.25
13	55	32	82	18	136	61	63	198	116	60	63	206	75	185	105	41	0	63	127	179	164	168	119	35	160	36	252	182	212	53	144	181	117	65	198	111	177	66	242	25	144	66	151	157	200	163	119	46	85	34	176	-77	-3
13	55	33	13	18	137	61	63	45	51	60	60	235	142	186	32	20	0	63	127	180	55	24	78	31	76	8	180	173	113	54	189	56	91	65	198	111	177	66	242	25	144	66	151	165	29	160	140	45	131	39	236	-76	-3.25
13	55	33	44	18	138	61	63	210	44	60	64	12	12	186	96	140	192	63	127	179	147	38	175	154	186	148	113	50	240	54	181	183	61	65	198	111	177	66	242	25	144	66	151	170	46	157	240	46	4	30	41	-76	-2.5
13	55	33	75	18	139	61	63	252	111	60	82	3	52	184	146	48	0	63	127	178	152	38	13	31	139	160	0	176	189	53	213	187	28	65	198	111	177	66	242	25	144	66	151	169	20	144	197	45	90	32	91	-76	-2.75
13	55	34	6	18	140	61	63	10	7	60	96	204	230	186	77	219	64	63	127	178	125	158	98	156	62	29	191	184	200	186	188	182	56	65	198	111	177	66	242	25	144	66	151	172	100	159	53	45	89	147	120	-76	-3
13	55	34	37	18	141	61	64	111	158	60	97	200	215	185	203	23	128	63	127	177	106	25	139	17	24	23	249	182	32	60	77	189	103	65	198	111	177	66	242	25	144	66	151	172	124	155	204	45	15	32	73	-76	-3.25
13	55	34	68	18	142	61	62	160	51	60	91	76	160	185	150	201	128	63	127	179	28	36	62	38	17	1	133	173	104	189	112	184	216	65	198	111	177	66	242	25	144	66	151	178	205	163	202	45	19	157	159	-76	-3.25
13	55	35	0	18	143	61	63	94	172	60	93	110	238	186	4	18	0	63	127	178	113	165	78	34	244	161	189	184	235	58	49	188	247	65	198	111	177	66	242	25	144	66	151	170	99	162	68	44	191	160	89	-76	-3
13	55	35	30	18	144	61	64	51	120	60	89	128	229	186	64	92	192	63	127	178	4	32	70	42	19	31	252	176	146	57	185	178	53	65	198	111	177	66	242	25	144	66	151	171	7	160	146	45	109	162	158	-76	-2.75
13	55	35	62	18	145	61	64	90	247	60	96	253	134	186	95	184	128	63	127	177	126	163	192	20	214	169	61	50	193	52	53	186	180	65	198	111	177	66	242	25	144	66	151	168	153	18	86	44	200	157	115	-76	-3
13	55	35	93	18	146	61	63	161	252	60	103	152	144	186	161	17	64	63	127	177	163	164	70	145	230	161	68	180	241	55	184	168	108	65	198	111	177	66	242	25	144	66	151	168	154	152	47	44	82	160	255	-76	-3
13	55	36	24	18	147	61	64	91	24	60	110	126	178	186	162	249	224	63	127	176	179	26	49	153	59	37	184	163	140	58	44	63	5	65	198	111	178	66	242	25	144	66	151	164	229	19	25	44	82	31	9	-76	-3
13	55	36	55	18	148	61	64	16	185	60	117	88	60	186	63	76	192	63	127	176	139	166	120	160	30	2	163	175	110	165	246	165	10	65	198	111	178	66	242	25	144	66	151	154	75	153	156	44	87	163	63	-77	-3.5
13	55	36	86	18	149	61	64	141	237	60	110	51	212	186	157	75	224	63	127	176	145	160	36	34	193	26	213	183	7	190	139	178	221	65	198	111	178	66	242	25	144	66	151	154	57	157	52	43	65	163	240	-77	-3.25
13	55	37	17	18	150	61	65	8	163	60	112	139	226	186	142	218	32	63	127	176	22	39	83	163	96	157	23	177	209	53	255	187	114	65	198	111	178	66	242	25	144	66	151	159	249	23	100	43	83	156	241	-76	-3.25
13	55	37	48	18	151	61	64	152	250	60	116	233	146	186	177	108	64	63	127	176	32	42	126	161	163	159	0	57	30	55	97	63	17	65	198	111	178	66	242	25	144	66	151	163	165	29	180	43	92	34	140	-76	-3.5
13	55	37	79	18	152	61	64	248	233	60	105	238	100	186	57	99	64	63	127	176	135	160	194	37	160	28	130	164	3	48	184	52	156	65	198	111	178	66	242	25	144	66	151	163	67	20	57	43	173	18	113	-76	-3
13	55	38	10	18	153	61	65	170	213	60	102	49	146	186	177	79	96	63	127	176	46	40	56	37	20	37	127	56	144	54	38	61	126	65	198	111	178	66	242	25	144	66	151	160	228	29	208	43	41	33	20	-76	-2.75
13	55	38	42	18	154	61	64	181	208	60	96	170	60	186	166	203	128	63	127	177	53	166	107	162	175	161	169	183	191	56	212	184	53	65	198	111	178	66	242	25	144	66	151	157	12	24	157	43	45	154	158	-77	-2.75
13	55	38	73	18	155	61	64	133	19	60	93	39	112	186	216	91	0	63	127	177	132	46	102	32	180	22	111	188	27	60	211	185	177	65	198	111	178	66	242	25	144	66	151	155	122	27	187	42	230	12	206	-76	-2.75
13	55	39	4	18	156	61	65	201	159	60	95	52	152	185	192	230	128	63	127	176	132	169	40	37	22	40	4	180	90	192	117	181	239	65	198	111	178	66	242	25	144	66	151	152	229	31	243	34	184	160	232	-76	-3
13	55	39	35	18	157	61	70	197	219	60	102	95	178	58	220	7	32	63	127	172	53	169	38	168	61	169	227	58	100	52	96	61	214	65	198	111	178	66	242	25	144	66	151	149	225	25	90	176	168	153	209	-76	-2.5
13	55	39	66	18	158	61	83	49	179	60	119	62	226	59	167	215	88	63	127	160	129	48	128	40	198	162	135	57	103	191	186	61	106	65	198	111	178	66	242	25	144	66	151	137	162	166	199	183	199	152	42	-76	-2.75
13	55	39	97	18	159	61	90	245	75	60	108	13	72	59	61	142	64	63	127	155	55	169	153	168	56	40	43	60	237	67	153	60	118	65	198	111	177	66	242	25	144	66	151	126	6	169	254	187	87	170	100	-76	-4.25
13	55	40	28	18	160	61	104	70	91	60	122	55	16	60	1	186	160	63	127	140	214	38	223	160	159	168	93	190	117	197	252	193	62	65	198	111	175	66	242	25	144	66	151	127	211	175	159	189	223	167	253	-76	-4
13	55	40	59	18	161	61	109	132	146	60	156	144	38	59	223	118	128	63	127	132	55	170	87	160	169	173	74	64	205	61	10	64	8	65	198	111	174	66	242	25	145	66	151	135	6	176	85	191	230	149	117	-76	-3.5
13	55	40	90	18	162	61	118	112	202	60	158	19	159	59	243	73	160	63	127	123	64	50	169	48	149	45	74	185	230	183	212	47	230	65	198	111	171	66	242	25	145	66	151	149	24	177	231	192	238	40	57	-77	-8.5
13	55	41	21	18	163	61	119	49	234	60	187	100	141	60	20	204	48	63	127	116	171	174	224	171	39	172	172	61	219	197	83	46	223	65	198	111	168	66	242	25	145	66	151	154	216	179	125	194	22	36	32	-77	-3.25
13	55	41	52	18	164	61	98	91	179	60	178	206	218	60	103	121	72	63	127	133	173	35	116	171	222	47	76	190	183	197	108	187	242	65	198	111	163	66	242	25	146	66	151	164	255	179	211	195	43	38	139	-76	-0.75
13	55	41	83	18	165	61	61	100	120	60	61	61	200	59	163	246	120	63	127	180	185	174	55	48	197	48	11	188	157	64	77	164	0	65	198	111	158	66	242	25	147	66	151	190	103	180	150	196	22	42	205	-76	-3.5
13	55	42	15	18	166	61	78	34	254	59	148	195	175	60	81	235	144	63	127	166	230	173	2	46	183	168	110	59	7	188	82	52	225	65	198	111	153	66	242	25	147	66	151	210	186	180	149	196	162	41	180	-77	-5.25
13	55	42	46	18	167	61	117	55	132	59	159	171	120	59	241	59	160	63	127	135	231	177	176	37	147	173	85	60	16	189	106	56	74	65	198	111	146	66	242	25	148	66	151	226	163	181	67	197	32	41	213	-75	-1.25
13	55	42	77	18	168	61	130	49	162	60	7	233	69	59	244	136	136	63	127	119	93	49	205	172	80	36	125	60	173	60	216	65	37	65	198	111	139	66	242	25	149	66	151	249	186	182	110	197	119	46	175	-75	-1.25
13	55	43	8	18	169	61	133	136	128	60	11	177	120	60	15	101	76	63	127	111	168	173	50	33	19	167	88	166	67	166	51	183	131	65	198	111	132	66	242	25	150	66	152	35	33	183	167	197	227	46	37	-77	-9.75
13	55	43	39	18	170	61	138	122	6	60	43	92	75	60	132	23	172	63	127	93	231	50	213	148	200	35	118	55	83	181	161	190	95	65	198	111	124	66	242	25	151	66	152	90	99	183	207	198	69	45	186	-76	-2
13	55	43	70	18	171	61	141	61	102	60	102	3	30	60	5	114	136	63	127	91	82	175	254	163	18	34	242	56	232	61	143	59	215	65	198	111	115	66	242	25	153	66	152	126	112	184	35	198	176	47	66	-76	-4.75
13	55	44	1	18	172	61	139	3	218	60	138	1	242	60	103	194	240	63	127	88	248	47	116	169	226	40	46	189	157	196	51	182	19	65	198	111	106	66	242	25	154	66	152	193	183	184	106	199	24	48	44	-76	-1.25
13	55	44	32	18	173	61	135	169	64	60	84	197	144	59	242	195	224	63	127	104	186	181	32	164	150	165	39	188	65	193	130	48	46	65	198	111	96	66	242	25	155	66	152	249	209	184	160	199	132	47	200	-76	-2.75
13	55	44	63	18	174	61	138	44	224	59	229	11	215	60	37	37	220	63	127	101	189	48	239	43	71	140	252	190	56	192	62	190	173	65	198	111	86	66	242	25	157	66	153	61	196	184	220	199	204	49	7	-77	-7.75
13	55	44	94	18	175	61	147	209	38	59	164	93	243	60	152	195	240	63	127	72	213	163	45	165	159	163	42	190	166	196	110	188	154	65	198	111	75	66	242	25	158	66	153	94	160	185	57	200	28	47	182	-75	-2.25
13	55	45	25	18	176	61	160	227	230	60	7	147	146	186	97	213	64	63	127	51	51	176	174	174	129	165	53	189	106	186	148	62	94	65	198	111	64	66	242	25	159	66	153	143	235	185	187	200	62	48	127	-75	-2
46	167	42	234	84	249	121	165	232	140	60	61	133	219	60	245	187	56	108	118	31	207	178	65	35	205	153	132	142	131	210	134	180	148	65	247	63	61	66	161	153	161	210	249	183	238	233	194	88	2	239	219	-77	-6.25
13	55	45	87	18	178	61	164	249	84	60	170	52	119	60	2	131	188	63	127	26	193	181	204	177	70	30	51	189	76	177	49	193	160	65	198	111	40	66	242	25	163	66	153	255	203	185	211	200	140	49	83	-76	-3.5
13	55	46	19	18	179	61	159	0	240	60	171	60	64	60	90	38	188	63	127	38	3	60	230	31	250	48	35	185	93	196	220	68	254	65	198	111	28	66	242	25	164	66	154	30	97	185	40	200	146	34	239	-77	-6.5
13	55	46	50	18	180	61	154	16	210	60	211	124	104	60	78	16	252	63	127	43	51	40	78	176	156	41	141	59	201	180	72	61	66	65	198	111	15	66	242	25	166	66	154	91	170	184	164	200	201	48	244	-77	-8.25
13	55	46	81	18	181	61	146	218	110	60	251	4	192	59	168	103	0	63	127	55	152	171	145	176	67	40	75	60	241	60	14	38	75	65	198	111	2	66	242	25	168	66	154	148	14	184	68	200	237	50	146	-77	-6.75
13	55	47	12	18	182	61	138	125	164	60	240	141	187	59	190	216	144	63	127	76	142	47	39	44	190	40	191	184	88	185	173	185	25	65	198	110	245	66	242	25	170	66	155	3	66	183	239	201	2	53	26	-77	-7
13	55	47	43	18	183	61	128	238	160	60	237	138	114	60	74	70	12	29	125	93	96	164	168	191	31	35	99	188	1	186	183	63	248	65	198	110	232	66	242	25	172	66	155	97	43	22	216	201	35	54	18	-77	-10
13	55	47	74	18	184	61	129	206	77	60	193	187	17	187	161	116	232	63	127	105	21	41	169	173	82	28	166	185	34	64	163	65	83	65	198	110	218	66	242	25	174	66	155	168	4	180	208	201	54	53	94	-77	-5.75
13	55	48	5	18	185	61	121	13	15	60	244	91	200	60	127	56	64	63	127	97	145	56	101	43	87	42	172	192	88	194	200	59	99	65	198	110	204	66	242	25	176	66	155	250	63	181	71	201	78	55	210	-77	-4.75
13	55	48	36	18	186	61	125	211	186	60	197	151	215	60	72	125	188	63	127	106	8	185	101	44	204	164	126	189	0	191	55	184	111	65	198	110	190	66	242	25	178	66	156	70	63	180	14	201	113	52	172	-76	-4
13	55	48	67	18	187	61	113	202	30	60	244	201	65	59	190	60	136	63	127	111	77	61	106	165	210	180	4	190	34	196	2	78	178	65	198	110	175	66	242	25	180	66	156	149	33	179	150	201	95	52	173	-77	-9
13	55	48	98	18	188	61	109	63	210	61	13	183	241	61	53	129	54	63	127	42	40	62	159	46	159	48	19	190	116	197	202	70	8	65	198	110	161	66	242	25	182	66	156	245	177	176	34	201	138	57	166	-77	-9
13	61	155	118	82	250	121	81	24	233	193	99	153	187	8	247	88	69	63	125	144	89	180	62	120	49	92	11	15	89	122	182	177	7	65	198	110	132	66	242	25	187	66	157	106	22	40	140	201	201	53	40	-77	-9.5
13	55	49	92	18	191	61	118	77	232	60	83	77	126	59	224	22	24	63	127	130	106	36	28	42	197	169	138	58	122	61	242	55	126	65	198	110	117	66	242	25	189	66	157	114	47	43	145	201	212	50	245	-76	-4.75
13	55	50	23	18	192	61	125	166	203	60	160	42	44	60	68	47	144	63	127	112	249	48	0	173	240	37	126	44	92	64	61	196	18	65	198	110	102	66	242	25	192	66	157	174	146	44	112	201	235	50	227	-77	-5.5
203	51	52	10	17	118	111	113	177	78	60	0	40	140	186	89	37	192	63	127	139	113	7	138	86	56	116	225	157	71	116	88	53	146	65	213	108	70	146	105	133	226	82	47	102	80	44	177	201	251	47	68	-77	-8.5
13	55	51	16	18	195	61	139	32	86	60	11	160	70	60	34	181	36	63	127	98	252	178	14	176	215	164	3	60	103	181	49	60	72	65	198	110	55	66	242	25	199	66	158	9	76	44	183	202	39	47	131	-77	-5.75
13	55	51	47	18	196	61	145	195	54	60	139	211	167	59	159	56	224	63	127	79	119	49	154	46	77	168	208	61	57	176	173	61	153	65	198	110	39	66	242	25	201	66	158	56	59	43	104	202	54	48	171	-77	-7.5
13	55	52	71	18	200	61	135	109	54	60	168	105	5	59	43	97	32	63	127	98	119	169	165	30	139	24	153	48	120	60	145	64	113	65	198	109	229	66	242	25	211	66	158	228	149	50	190	202	117	49	5	-77	-10
13	55	53	2	18	201	61	134	140	192	60	167	233	48	60	31	169	214	63	127	97	131	173	128	156	41	37	13	53	19	174	160	65	148	65	198	109	212	66	242	25	214	66	159	32	105	51	112	202	138	50	149	-77	-8.25
62	148	3	50	146	70	125	181	56	125	108	203	247	242	178	6	74	172	59	175	93	217	102	168	206	145	97	200	153	224	20	207	62	234	217	115	205	197	220	97	154	158	201	109	191	205	45	251	208	136	66	131	-78	-12.75
30	104	59	118	70	33	200	17	25	214	102	53	242	64	132	102	50	229	125	245	12	36	52	30	175	26	221	167	29	208	55	126	197	108	187	237	241	244	147	124	150	172	103	188	12	76	243	207	71	6	85	114	-78	-12.25
194	237	74	58	1	2	105	77	244	18	62	95	235	230	185	167	204	0	61	171	130	255	93	174	104	183	249	136	15	239	210	63	206	15	21	97	184	61	151	163	50	14	170	227	183	148	103	55	88	213	94	92	-77	-12.5
13	56	30	3	19	64	191	126	223	105	60	154	187	254	60	167	28	204	105	167	15	34	110	57	175	68	189	92	173	115	224	81	60	243	65	102	70	64	194	112	153	187	23	89	198	148	110	16	72	55	19	216	-78	-12
13	56	31	0	21	37	223	127	48	196	60	51	137	200	60	172	225	177	185	147	13	44	48	84	91	89	200	128	79	33	63	231	230	255	183	108	3	3	72	103	208	236	66	155	231	93	121	211	77	112	175	150	-77	-11
13	56	32	51	19	72	191	127	67	28	60	166	156	142	60	179	65	234	61	142	212	80	176	29	45	91	164	90	49	148	184	80	9	226	113	128	113	220	0	36	5	128	66	154	175	145	40	171	72	79	177	158	-77	-8.5
66	125	168	88	185	67	21	127	88	238	59	197	221	120	60	207	185	71	61	136	13	66	173	204	203	180	8	236	5	181	170	88	138	175	4	198	111	72	82	81	19	43	66	153	139	234	40	160	72	83	174	130	-78	-9.75
97	88	129	4	19	14	238	127	103	5	62	114	21	196	60	154	172	154	61	130	244	139	54	211	171	67	36	104	171	116	167	50	59	223	65	198	111	83	66	242	25	170	66	154	106	192	155	176	72	207	135	125	-77	-10.75
13	56	33	44	21	77	191	117	88	144	52	101	33	228	41	238	76	246	61	128	229	76	50	218	38	173	29	151	184	107	177	120	55	150	65	198	111	94	66	242	25	168	66	154	75	45	42	198	64	60	80	218	-77	-10.25
30	58	42	228	187	72	127	32	14	205	39	4	20	223	145	236	116	71	120	251	225	77	31	58	34	28	101	135	146	195	55	63	11	9	112	100	143	163	74	122	213	231	75	154	180	81	3	103	228	76	117	57	-77	-12.75
13	56	35	31	19	81	191	47	208	237	58	160	63	192	59	223	43	118	61	125	147	169	57	168	163	147	50	44	52	186	58	227	62	184	65	198	111	161	66	242	25	158	66	153	234	167	48	192	72	148	47	202	-77	-9.5
13	56	35	190	155	210	55	127	111	127	187	78	197	0	59	255	237	28	61	134	213	76	166	147	174	73	24	152	59	80	180	11	181	146	65	198	111	173	66	242	25	157	66	153	236	23	51	112	72	173	32	175	-77	-6
13	56	36	55	19	85	191	127	91	186	58	135	85	128	59	208	63	155	61	144	81	251	48	54	173	155	163	145	62	95	61	72	184	176	65	198	111	209	66	242	25	152	66	153	243	217	53	253	72	205	38	41	-76	-2.5
13	56	36	87	19	86	191	127	86	251	186	137	195	224	59	170	143	24	61	146	152	131	46	218	42	23	36	211	60	194	59	121	189	179	65	198	111	222	66	242	25	150	66	153	235	174	55	73	72	218	29	193	-77	-7.25
13	56	37	18	19	87	191	179	237	136	49	105	81	144	59	34	226	188	61	153	62	109	45	129	40	208	165	16	187	243	51	121	146	55	191	198	111	234	66	242	25	148	66	153	238	46	56	10	72	228	158	250	-76	-4.25
13	56	37	49	19	88	191	127	42	177	27	94	120	96	92	27	159	245	61	163	167	107	183	200	161	209	169	182	56	125	191	143	196	184	65	198	111	247	66	242	25	146	66	153	235	32	56	153	72	243	168	250	-75	-2.75
59	193	165	241	127	102	229	122	31	99	187	144	186	176	60	158	26	184	61	164	145	179	51	87	45	184	36	76	60	227	67	43	188	115	65	198	112	4	66	242	25	145	34	85	138	110	9	154	177	204	148	84	-77	-10.75
13	56	38	11	19	90	191	189	54	214	57	33	154	17	60	200	233	78	248	146	24	244	179	104	200	43	38	45	56	210	60	42	58	189	65	198	112	18	66	242	25	143	66	153	222	193	56	193	73	16	161	170	-78	-10.25
13	56	38	42	19	91	191	127	78	3	59	156	194	32	60	63	191	128	61	148	153	32	42	49	170	151	40	40	57	9	60	117	180	238	65	198	112	31	66	242	25	141	66	153	219	171	56	104	73	24	168	150	-77	-7.75
13	56	38	73	19	92	191	127	78	21	59	228	202	40	104	197	157	219	61	165	88	64	170	91	167	212	161	248	51	44	60	124	28	35	65	198	112	45	66	242	25	139	66	153	217	202	52	122	64	40	172	170	-77	-9.75
13	56	39	4	19	93	191	127	73	127	186	46	143	0	59	188	123	235	52	152	198	81	161	220	46	189	24	6	54	18	55	4	17	6	65	94	241	122	219	107	76	232	67	153	215	226	56	246	73	43	156	188	-77	-8.75
13	56	39	35	19	94	191	127	55	147	60	4	85	120	59	163	210	16	61	158	221	138	180	202	37	97	160	4	183	239	188	95	50	246	65	198	112	72	66	242	25	136	66	153	215	123	57	37	73	60	174	147	-77	-9.25
47	56	42	203	67	166	227	127	42	179	107	132	206	165	60	146	219	10	61	160	143	68	44	54	106	1	221	60	58	218	177	80	172	90	77	198	112	143	66	242	25	126	66	153	249	111	57	41	73	114	172	10	-77	-8.25
13	56	41	22	19	100	191	127	45	218	59	116	74	208	60	182	109	132	61	157	56	249	42	80	46	56	29	108	53	98	185	57	195	82	65	198	112	157	66	242	25	124	66	153	254	102	57	53	73	126	169	39	-77	-8
13	56	43	40	19	107	191	127	127	9	58	29	29	192	60	95	134	121	61	122	176	54	47	43	49	40	11	39	57	5	64	202	180	164	65	198	113	5	66	242	25	110	66	153	221	232	55	98	73	183	173	127	-77	-7.5
13	56	43	71	19	108	191	127	123	250	60	83	173	0	60	14	105	93	61	123	236	200	159	17	168	133	160	30	52	232	183	188	61	183	65	198	113	21	66	242	25	108	66	153	232	96	54	90	73	195	174	180	-76	-6.25
13	56	44	2	19	109	191	127	128	244	59	138	69	144	59	134	6	142	107	24	194	211	180	208	47	236	167	213	173	148	64	150	61	217	65	198	113	36	194	242	25	102	66	153	231	6	55	110	73	206	168	122	-76	-5.5
13	56	44	95	19	112	191	127	103	145	188	37	167	8	59	145	2	95	56	140	149	8	180	190	175	55	169	51	42	39	65	134	194	178	65	198	113	82	66	242	25	100	66	153	228	7	56	53	73	227	174	245	-75	-1.5
13	56	45	26	19	113	191	127	89	119	60	115	156	72	59	229	60	116	61	141	251	54	168	236	135	23	165	201	56	180	52	117	68	21	65	198	113	97	66	242	25	97	66	153	221	58	56	146	73	226	171	131	-77	-3.25
13	56	45	57	19	114	191	117	152	32	52	34	27	228	59	189	251	113	61	143	182	200	183	143	175	95	133	109	57	90	63	148	189	32	17	198	113	113	66	242	25	95	66	153	224	22	56	206	73	239	177	12	-75	-1
13	56	46	19	19	116	191	127	74	46	59	155	135	248	60	79	102	238	61	149	234	90	52	74	37	28	36	36	55	177	189	180	31	93	209	198	113	144	66	242	25	91	66	153	214	89	57	35	73	246	164	228	-77	-7
13	56	46	82	19	118	191	127	54	43	12	230	247	165	59	148	69	176	61	151	18	14	52	114	28	251	48	13	61	18	196	12	58	165	65	198	113	176	66	242	25	87	66	153	204	147	57	178	73	231	182	196	-76	-8
13	56	47	13	19	119	191	127	52	117	187	135	143	144	59	235	102	6	61	160	99	134	54	149	206	184	246	238	62	193	65	121	191	111	65	198	113	192	66	242	25	85	66	153	167	197	57	184	74	0	178	78	-77	-8.5
13	56	47	44	19	120	191	127	30	0	60	101	12	140	60	68	213	32	61	165	176	244	183	143	167	106	168	3	187	36	190	248	64	90	65	198	113	209	66	242	25	83	66	153	168	138	57	246	74	19	173	91	-76	-3.25
13	56	47	75	19	121	191	127	39	137	59	53	197	112	60	174	238	137	61	162	151	203	177	45	171	62	41	37	60	119	58	25	182	208	65	198	113	225	66	242	25	81	66	153	174	74	58	71	74	18	172	61	-77	-8.75
13	56	48	6	19	122	191	127	38	29	60	95	151	100	60	189	168	207	11	251	180	72	172	217	174	165	28	89	172	112	64	196	64	209	65	198	113	241	66	242	25	79	66	153	178	252	57	224	74	29	173	66	-76	-1.25
13	56	48	37	19	123	191	127	66	96	59	172	166	136	60	134	148	132	61	151	159	134	50	2	50	111	160	62	184	103	51	78	181	5	65	198	114	1	66	242	25	76	66	153	197	79	57	159	74	33	36	45	-76	-4.25
13	56	48	68	19	124	191	127	64	47	58	165	134	64	60	167	52	147	61	150	223	254	48	50	168	33	30	29	184	41	179	190	188	22	65	198	114	18	66	242	25	74	66	153	183	93	57	55	74	41	168	134	-75	-1.5
13	56	48	99	19	125	191	127	75	172	59	216	146	144	60	142	192	58	61	146	243	74	48	87	46	46	39	190	183	143	178	202	57	60	65	198	114	34	66	242	25	72	66	153	185	227	57	28	74	43	172	195	-73	2
13	56	49	30	19	126	191	127	78	140	60	5	84	212	60	158	3	178	61	144	97	150	179	145	175	100	43	39	184	135	182	183	66	8	65	198	114	50	66	242	25	70	66	153	179	102	56	215	74	57	173	142	-76	-3.25
13	56	49	92	19	128	191	127	104	241	59	85	163	16	60	68	224	23	61	136	157	169	50	11	44	87	35	49	57	193	64	41	62	25	65	198	114	83	66	242	25	65	66	153	150	242	56	86	74	66	169	185	-76	-4.5
13	56	50	24	19	129	191	127	108	189	59	147	102	248	60	14	253	36	61	135	190	4	47	244	39	221	166	181	172	121	56	155	186	10	65	78	122	100	66	242	41	63	66	153	140	245	56	70	74	71	171	219	-75	-1.25
13	56	50	55	19	130	191	127	108	65	59	130	250	8	59	131	57	41	61	136	243	240	176	125	38	161	163	204	58	75	187	215	194	67	65	198	114	116	66	242	25	61	66	153	127	237	56	115	74	56	168	70	-75	-3.5
13	56	50	86	19	131	191	127	87	193	59	88	28	48	59	94	138	130	61	146	85	232	52	32	174	188	163	197	180	246	48	6	57	76	65	198	114	133	66	242	25	59	66	153	122	54	56	56	74	24	156	228	-75	-2.5
13	56	51	17	19	132	191	127	80	165	59	187	72	16	60	56	118	94	61	147	121	88	51	172	45	225	164	155	177	247	58	51	66	41	65	198	114	149	66	242	25	56	66	153	106	172	56	91	74	6	169	250	-72	2
107	94	53	48	19	133	191	127	75	144	60	108	236	112	60	70	47	178	61	146	225	216	45	55	170	190	40	47	188	79	193	118	52	189	65	198	114	165	66	242	25	54	66	153	92	6	56	14	73	236	175	121	-72	1.25
13	56	51	79	19	134	191	127	89	69	59	189	2	240	60	26	190	212	61	144	58	142	167	11	46	186	169	5	184	18	48	102	184	0	65	198	114	181	66	242	25	52	66	153	74	10	56	32	73	228	169	58	-72	2.5
13	56	52	10	19	135	191	127	80	233	59	231	78	136	60	34	168	188	61	147	131	201	37	118	172	159	164	213	56	212	185	211	192	61	65	198	114	196	66	242	25	50	66	153	76	192	55	191	73	216	170	107	-73	2.25
13	56	52	41	19	136	191	127	70	173	59	189	60	48	60	100	167	16	61	150	198	146	174	182	163	93	168	54	187	123	185	11	59	5	65	198	114	211	66	242	25	48	66	153	87	208	55	89	73	204	157	71	-71	2.75
13	56	52	73	19	137	191	127	70	4	59	197	50	176	60	178	36	124	61	147	25	179	56	39	177	38	39	67	58	133	60	199	68	84	65	198	114	226	66	242	25	46	66	153	102	10	54	153	73	187	42	73	-69	3.75
13	56	53	3	35	138	191	127	72	166	60	42	46	24	60	170	131	63	61	145	125	187	173	66	49	159	168	251	187	41	186	96	56	83	65	198	114	241	66	242	25	44	66	153	94	149	54	143	73	181	34	54	-69	4.25
13	56	53	66	19	140	191	127	103	181	60	3	180	196	60	172	226	74	61	131	166	178	35	223	47	63	37	167	178	210	183	145	170	49	65	198	115	15	194	242	153	160	66	153	57	194	52	197	73	164	164	15	-70	3.5
13	56	53	97	19	141	191	127	118	159	187	49	31	112	60	137	191	208	61	127	189	143	50	152	37	232	25	167	40	63	57	195	188	112	65	198	115	30	66	242	25	38	66	153	47	100	51	161	73	154	38	223	-72	2.25
13	56	54	28	19	142	191	127	119	98	60	24	59	152	60	109	21	234	61	126	200	190	185	89	168	66	163	87	54	177	181	27	190	15	65	198	115	45	66	242	25	36	66	153	31	155	51	73	73	156	172	70	-72	2.5
13	56	54	59	19	143	191	127	119	126	59	215	95	0	60	136	121	103	61	125	219	14	52	118	25	208	36	63	28	138	185	171	52	155	65	198	115	59	66	242	25	33	66	152	253	56	49	187	73	135	164	88	-73	1.75
13	56	54	90	19	144	191	127	139	113	60	41	59	0	60	67	208	158	61	107	117	21	173	92	169	44	39	147	171	155	60	35	168	70	65	198	115	74	66	242	25	31	66	152	208	254	50	6	73	134	176	38	-69	3.75
13	56	55	21	19	145	191	127	138	159	60	7	159	128	59	162	227	141	61	113	213	78	34	252	47	22	170	77	182	118	193	0	136	16	65	198	115	88	66	242	25	29	66	152	176	76	50	137	73	117	173	72	-71	2.75
13	56	55	52	19	146	191	127	127	138	59	203	59	152	58	246	100	232	61	126	248	19	49	211	47	180	168	122	184	81	183	57	51	67	65	198	115	102	66	242	25	27	66	152	145	1	51	127	73	92	168	128	-71	2
13	56	55	83	19	147	191	127	117	237	60	66	26	172	59	75	22	152	61	130	125	82	178	238	176	234	28	105	59	222	55	45	189	138	65	198	115	116	66	242	25	26	66	152	120	12	51	244	73	64	173	131	-67	5.25
13	56	56	15	19	148	191	127	108	17	60	66	2	208	58	185	41	144	61	135	88	254	179	12	44	25	166	181	54	57	180	82	56	115	65	198	115	130	66	242	25	24	66	152	81	244	52	165	73	28	175	116	-64	6
13	56	56	46	19	149	191	127	92	95	60	33	68	0	59	108	150	110	61	143	8	174	176	92	48	220	169	76	184	178	191	168	181	225	65	198	115	143	66	242	25	22	66	152	60	219	53	89	72	245	173	155	-62	5.5
13	56	56	77	19	150	191	127	75	151	60	105	147	156	59	209	13	216	61	148	116	239	46	30	44	98	157	107	186	138	51	46	64	8	65	198	115	156	66	242	25	20	66	152	25	180	53	31	72	209	172	155	-63	5.75
13	56	57	8	19	151	191	127	77	21	59	50	66	96	60	34	203	133	61	149	193	254	47	202	46	4	161	179	188	203	61	49	65	207	65	198	115	169	66	242	25	18	66	151	243	158	53	14	72	173	169	158	-67	5
13	56	57	39	19	152	191	127	51	71	60	171	124	20	60	138	238	219	61	152	12	182	171	119	47	33	150	188	187	2	194	34	61	214	65	198	115	181	66	242	25	17	66	151	207	141	52	223	72	131	173	83	-62	6.25
13	56	57	70	19	153	191	127	94	187	60	75	155	76	60	53	140	31	61	139	125	56	180	172	53	26	33	76	185	76	185	23	191	246	65	198	115	193	66	242	25	15	66	151	176	80	53	12	72	91	172	165	-68	4.75
13	56	58	1	19	154	191	127	93	54	60	198	172	14	187	219	32	127	61	134	192	174	174	219	48	170	167	154	177	200	189	139	60	72	65	198	115	204	66	242	25	14	66	151	130	153	51	144	72	27	173	206	-58	6.25
13	56	58	32	19	155	191	127	74	129	60	102	163	32	188	103	252	170	61	146	187	60	173	95	36	15	166	121	56	250	188	81	190	215	65	198	115	215	66	242	25	12	66	151	77	54	52	104	71	149	173	136	-62	5.5
13	56	58	64	19	156	191	127	8	126	60	171	91	76	188	207	42	108	61	164	162	216	54	162	47	102	173	133	54	30	194	121	192	22	65	198	115	225	66	242	25	11	66	151	26	5	53	122	70	226	172	116	-57	6.75
13	56	58	94	19	157	191	126	144	222	60	83	201	164	188	205	50	117	61	208	163	206	164	153	173	233	177	163	56	253	53	149	183	190	65	198	115	234	66	242	25	10	66	150	228	16	53	250	70	90	173	158	-55	6.25
13	56	59	26	19	158	191	125	208	195	60	210	30	52	186	103	191	128	62	2	224	64	168	95	177	230	174	159	172	218	195	229	60	113	65	198	115	242	66	242	25	9	66	150	168	153	54	4	69	174	174	170	-54	6.25
13	56	59	57	19	159	191	125	182	20	60	144	55	22	60	191	191	186	62	5	74	192	51	118	176	44	43	128	56	76	187	193	45	60	65	198	115	250	66	242	25	8	66	150	111	79	54	24	69	25	173	137	-53	6
13	56	59	88	19	160	191	126	52	116	60	150	30	254	60	167	193	14	61	235	122	82	174	77	149	40	46	16	188	136	191	189	187	59	65	198	116	0	66	242	25	7	66	150	69	129	52	237	68	179	174	51	-49	5.5
13	57	0	19	19	161	191	126	116	227	60	141	88	100	60	155	108	196	61	218	82	120	53	67	171	30	36	97	180	58	63	122	55	52	65	198	116	7	66	242	25	7	66	150	33	91	48	187	68	66	170	186	-55	6.5
13	57	0	50	19	162	191	126	134	213	60	165	195	14	60	202	143	156	61	209	108	0	170	97	48	73	47	118	170	196	189	33	50	59	65	198	116	12	66	242	25	6	66	149	232	177	49	3	67	156	172	148	-59	6
13	57	0	81	19	163	191	127	9	33	60	226	82	100	60	29	210	148	61	167	46	34	44	132	50	130	48	22	49	172	196	15	59	79	65	198	116	17	66	242	25	5	66	149	184	131	44	130	66	194	170	130	-48	6.5
13	57	1	12	19	164	191	127	6	63	60	196	162	20	187	44	165	96	61	171	165	222	167	57	33	170	175	40	40	101	185	12	181	33	65	198	116	21	66	242	25	5	66	149	161	40	170	167	66	29	169	198	-47	6.75
13	57	1	43	19	165	191	126	153	161	60	161	80	26	58	102	24	160	61	210	10	148	177	176	162	13	176	90	58	125	184	184	179	22	65	198	116	24	66	242	25	4	66	149	143	245	147	155	65	135	28	243	-49	6.25
13	57	1	74	19	166	191	126	25	155	60	191	207	164	58	214	17	64	61	244	95	139	36	104	163	15	174	40	183	31	61	81	40	5	65	198	116	28	66	242	25	4	66	149	107	186	45	54	64	250	136	33	-51	6.25
13	57	2	5	19	167	191	125	187	31	60	139	83	64	59	56	54	196	62	6	227	28	44	68	170	252	175	83	181	213	62	162	171	12	65	198	116	31	66	242	25	4	66	149	78	161	41	161	64	132	34	59	-49	6
13	57	2	37	19	168	191	124	221	183	60	164	63	138	60	148	189	142	62	29	81	125	169	64	172	124	173	81	177	114	186	217	53	147	65	198	116	33	66	242	25	3	66	149	54	146	41	238	64	75	156	104	-47	6.5
13	57	2	67	19	169	191	124	235	115	60	181	1	252	61	19	5	25	62	24	96	228	48	6	171	186	47	232	48	171	184	237	185	102	65	198	116	36	66	242	25	3	66	149	33	53	44	146	63	97	39	45	-49	5.5
13	57	2	99	19	170	191	126	28	167	60	146	117	66	61	34	31	102	61	231	204	134	41	161	156	90	52	205	62	39	192	242	187	184	65	198	116	38	66	242	25	3	66	149	1	147	164	31	62	138	37	26	-58	6
13	57	3	30	19	171	191	127	88	235	60	101	29	176	61	7	47	96	61	124	193	7	44	0	40	116	54	22	185	171	60	56	65	185	65	198	116	39	66	242	25	3	66	148	233	21	173	10	62	64	40	170	-63	6.25
13	57	3	61	19	172	191	127	244	212	60	0	25	252	60	135	165	87	59	32	245	112	168	148	49	53	53	241	179	253	184	113	56	160	65	198	116	41	66	242	25	2	66	148	209	156	176	202	61	230	41	59	-47	6.25
13	57	3	92	19	173	191	127	206	199	60	53	181	120	59	91	198	214	189	23	119	44	166	112	167	15	51	54	180	52	192	4	185	187	65	198	116	43	66	242	25	2	66	148	193	27	180	114	61	23	41	235	-42	0
13	57	4	23	19	174	191	127	149	61	60	35	230	244	186	178	203	181	189	102	6	190	177	2	42	211	44	106	58	213	52	65	59	101	65	198	116	44	66	242	25	2	66	148	174	84	177	223	60	167	158	61	-48	6
13	57	4	54	19	175	191	127	110	110	60	36	58	196	188	126	137	143	189	131	18	91	49	183	171	218	40	58	52	74	193	31	60	122	65	198	116	45	66	242	25	2	66	148	152	56	180	69	58	46	40	64	-42	4.5
13	57	4	85	19	176	191	127	98	201	60	34	243	176	187	78	83	248	189	140	39	190	180	152	177	155	164	25	184	197	58	208	184	64	65	198	116	45	66	242	25	2	66	148	138	99	181	95	57	55	168	163	-42	6.25
13	57	5	16	19	177	191	127	72	232	59	34	147	208	60	117	191	248	189	149	200	46	44	26	173	171	43	90	53	114	189	178	188	118	65	198	116	46	66	242	25	1	66	148	124	212	180	118	55	210	29	29	-42	4
13	57	5	47	19	178	191	127	42	215	59	219	158	8	60	205	162	177	189	156	61	92	174	156	168	126	157	123	43	147	186	85	58	19	65	198	116	46	66	242	25	1	66	148	102	183	174	249	52	181	24	25	-41	6.75
13	57	5	78	19	179	191	127	52	226	59	57	120	64	60	145	227	230	189	156	212	98	41	225	44	92	34	203	182	243	56	97	58	195	65	198	116	46	66	242	25	1	66	148	83	231	159	107	50	74	164	57	-40	6.5
13	57	6	10	19	180	191	127	60	162	59	112	200	224	59	245	227	227	189	157	23	163	30	113	44	245	37	135	183	79	55	69	48	137	65	198	116	46	66	242	25	1	66	148	66	222	162	100	50	19	165	242	-40	6.5
13	57	6	41	19	181	191	127	62	20	59	139	151	152	58	84	175	70	189	157	48	188	39	202	42	165	32	106	60	209	193	71	173	232	65	198	116	46	66	242	25	1	66	148	48	197	164	7	48	236	167	2	-41	6.5
13	57	6	72	19	182	191	127	63	107	59	98	158	208	186	82	64	230	189	156	184	232	39	88	161	80	165	44	173	123	60	99	186	8	65	198	116	46	66	242	25	1	66	148	58	25	166	196	48	131	164	224	-41	6.75
13	57	7	3	19	183	191	127	63	45	59	103	186	64	58	216	82	146	189	156	201	124	158	54	163	172	167	189	179	15	63	84	185	28	65	198	116	46	66	242	25	1	66	148	44	80	161	185	48	51	166	191	-40	6.5
13	57	7	34	19	184	191	127	63	85	59	50	149	176	59	6	184	44	141	156	197	242	166	138	31	1	36	242	52	118	184	237	216	186	65	198	178	46	66	242	25	1	66	148	31	61	33	58	47	34	165	230	-40	3.25
13	57	7	65	19	185	191	127	62	165	59	39	140	208	59	107	47	218	189	156	243	22	36	119	153	4	37	65	57	90	183	115	173	197	65	198	116	46	66	242	25	1	66	148	21	172	37	18	46	233	166	169	-40	6.75
13	57	7	96	19	186	191	127	63	0	59	52	176	48	59	124	97	254	189	156	195	54	170	11	150	162	161	80	184	243	59	21	45	91	65	198	116	45	66	242	25	2	66	148	25	34	40	11	45	250	163	200	-42	0.75
13	57	8	27	19	187	191	127	60	240	59	14	152	144	59	160	224	248	189	157	131	144	44	178	22	57	159	114	178	249	52	37	60	55	65	198	116	45	66	242	25	2	66	148	19	4	42	84	44	233	160	98	-40	-0.75
13	57	8	58	19	188	191	127	62	147	59	48	199	48	59	177	233	81	189	156	190	47	160	248	38	123	161	166	187	220	57	245	38	3	65	198	116	45	66	242	25	2	66	148	8	50	44	38	44	120	167	27	-37	-0.75
13	57	8	89	19	189	191	127	59	228	59	81	151	96	59	187	203	74	189	157	191	178	39	236	36	145	36	85	176	0	60	39	185	88	65	198	116	45	66	242	25	2	66	148	4	186	45	8	43	153	168	126	-43	5.75
13	57	9	21	19	190	191	127	59	244	59	22	127	64	59	211	148	170	189	157	171	247	39	99	166	74	40	223	56	88	186	48	64	37	65	198	116	45	66	242	25	2	66	148	11	85	44	233	40	133	155	161	-38	0.75
13	57	9	51	19	191	191	127	58	99	58	151	127	192	60	13	46	121	189	157	237	238	44	15	32	0	172	44	186	70	60	113	184	57	65	198	116	45	66	242	25	2	66	148	11	164	45	182	40	185	157	201	-41	0
13	57	9	83	19	192	191	127	58	68	58	187	173	192	60	21	217	23	189	157	215	78	161	55	34	212	42	161	56	215	186	35	188	52	65	198	116	45	66	242	25	2	66	148	0	214	46	249	38	65	167	173	-38	-1
13	57	10	14	19	193	191	127	57	145	58	238	53	160	60	17	139	50	189	158	43	54	25	165	32	60	151	87	49	193	181	173	44	67	65	198	116	45	66	242	25	2	66	148	0	47	47	206	33	171	164	15	-41	-0.5
13	57	10	45	19	194	191	127	56	246	58	251	151	32	60	6	15	132	189	158	145	248	39	245	33	49	170	92	185	13	58	122	184	41	65	198	116	45	66	242	25	2	66	148	13	101	47	245	33	119	164	238	-41	0
13	57	10	76	19	195	191	127	55	162	58	235	54	64	60	3	84	67	189	159	35	211	39	254	165	144	39	216	60	102	191	99	63	193	65	198	116	45	66	242	25	2	66	148	14	136	48	65	160	132	23	64	-42	1.25
13	57	11	7	19	196	191	127	56	55	58	127	77	64	60	22	79	10	189	158	172	236	37	175	161	93	149	152	57	75	187	140	188	156	65	198	116	45	66	242	25	2	66	148	15	71	48	50	162	202	159	236	-40	-1
13	57	11	38	19	197	191	127	53	240	58	217	207	160	60	43	227	48	189	159	57	108	29	242	165	63	164	107	19	191	63	105	182	255	65	198	116	45	66	242	25	2	66	148	10	23	48	119	160	98	163	71	-39	-1
13	57	11	69	19	198	191	127	53	166	58	166	17	96	60	58	89	50	189	159	25	39	35	85	160	14	166	75	184	48	53	116	172	221	65	198	116	45	66	242	25	2	66	148	25	53	48	109	163	47	29	116	-41	0.5
13	57	12	0	19	199	191	127	52	246	58	73	1	192	60	48	84	253	189	159	145	169	164	252	12	166	165	16	186	171	64	188	37	33	65	198	116	45	66	242	25	2	66	148	21	41	48	226	162	159	163	124	-41	6
13	57	12	32	19	200	191	127	53	57	59	16	22	240	60	42	84	90	189	159	130	106	41	95	40	127	38	163	172	207	54	136	186	63	65	198	116	45	66	242	25	2	66	148	13	45	49	32	167	2	161	244	-42	4.75
13	57	12	62	19	201	191	127	51	188	58	137	94	160	60	47	6	232	189	160	18	48	32	100	38	224	37	22	54	159	59	232	181	41	65	198	116	45	66	242	25	2	66	148	9	87	49	31	168	72	164	105	-41	3.25
13	57	12	94	19	202	191	127	50	120	58	121	99	192	60	58	199	206	189	160	94	198	170	94	27	34	148	8	57	0	184	106	186	239	65	198	116	45	66	242	25	2	66	148	21	241	49	35	168	135	18	217	-42	1
13	57	13	25	19	203	191	127	50	206	58	178	225	32	60	70	75	122	189	160	2	42	40	225	163	234	163	160	43	88	182	179	174	105	65	198	116	45	66	242	25	2	66	148	18	11	49	155	172	56	21	45	-41	4.5
13	57	13	56	19	204	191	127	49	139	57	0	165	0	60	90	219	68	189	160	30	146	170	138	36	69	36	75	60	25	39	185	188	178	65	198	116	45	66	242	25	2	66	148	15	67	49	152	169	182	17	79	-41	6.5
13	57	13	87	19	205	191	127	49	148	58	186	204	224	60	67	51	29	189	160	141	35	169	219	37	95	33	77	60	83	188	145	184	26	65	198	116	45	66	242	25	2	66	148	14	63	50	239	171	114	160	170	-41	6.5
13	57	14	18	19	206	191	127	51	240	58	247	188	96	59	179	237	193	189	161	14	42	37	41	41	238	154	135	182	91	49	184	59	126	65	198	116	45	66	242	25	2	66	148	25	54	50	104	168	149	37	108	-41	6.75
13	57	14	49	19	207	191	127	52	182	59	60	245	80	58	74	135	137	189	161	18	152	165	64	37	54	28	147	55	108	188	177	170	106	65	198	116	45	66	242	25	2	66	148	23	51	50	207	172	84	27	39	-41	6.25
13	57	14	80	19	208	191	127	53	235	59	93	12	176	187	20	68	31	189	160	125	230	158	249	44	76	168	52	186	101	57	230	38	184	65	198	116	45	66	242	25	2	66	148	20	2	50	119	170	59	33	118	-41	6.25
13	57	15	12	19	209	191	127	54	8	59	110	39	16	187	40	135	232	189	160	103	196	161	32	36	204	149	40	176	19	48	197	53	49	65	198	116	45	66	242	25	2	66	148	23	180	50	51	171	162	28	232	-41	6.75
13	57	15	42	19	210	191	127	52	147	59	126	199	64	187	35	132	218	189	160	247	83	25	172	163	122	149	131	51	184	188	216	62	135	65	198	116	45	66	242	25	2	66	148	32	106	49	173	171	146	36	39	-38	6
13	57	15	74	19	211	191	127	52	24	59	112	191	16	187	8	84	90	189	161	51	110	35	151	146	170	37	132	48	116	55	13	180	26	65	198	116	45	66	242	25	2	66	148	32	152	49	159	171	52	149	66	-37	6.5
13	57	16	5	19	212	191	127	50	242	59	111	229	80	186	166	17	63	189	161	177	64	32	214	151	248	33	68	53	240	61	40	186	60	65	198	116	45	66	242	25	2	66	148	27	42	49	206	171	10	161	82	-36	6.5
13	57	16	36	19	213	191	127	51	198	59	44	4	96	185	32	174	137	189	161	119	234	33	140	32	101	165	198	186	21	178	5	55	100	65	198	116	45	66	242	25	2	66	148	27	93	49	173	172	17	12	140	-36	6.5
13	57	16	67	19	214	191	127	49	112	59	69	92	192	58	185	7	124	189	162	86	215	42	86	34	64	37	122	178	198	47	154	57	51	65	198	116	45	66	242	25	2	66	148	40	62	49	57	171	24	36	112	-36	6.5
13	57	16	98	19	215	191	127	49	4	59	65	50	224	59	30	17	21	189	162	117	58	168	65	165	116	149	90	58	188	184	25	184	16	65	198	116	45	66	242	25	2	66	148	36	108	49	187	172	98	152	210	-37	6.75
13	57	17	29	19	216	191	127	49	5	59	43	21	208	59	95	5	203	189	162	102	183	40	110	163	106	31	57	52	201	189	222	63	94	65	198	116	45	66	242	25	3	66	148	33	142	49	208	172	73	25	101	-36	6.25
13	57	17	60	19	217	191	127	49	69	59	9	115	48	59	99	184	191	189	162	84	77	40	51	30	45	40	123	55	100	188	2	188	113	65	198	116	45	66	242	25	3	66	148	38	94	49	225	172	84	161	71	-36	6.25
13	57	17	91	19	218	191	127	48	62	59	73	126	0	59	111	53	12	189	162	167	240	169	252	34	137	37	87	43	53	182	150	19	224	65	198	116	45	66	242	25	3	66	148	49	105	49	86	171	20	157	192	-36	6.25
13	57	18	23	19	219	191	127	46	205	59	82	172	96	59	146	244	127	189	163	30	150	168	111	34	86	35	170	44	111	60	247	59	229	65	198	116	45	66	242	25	3	66	148	47	81	49	7	170	135	152	210	-36	5.75
13	57	18	53	19	220	191	127	46	0	59	16	30	48	59	160	29	36	189	163	116	50	37	106	36	69	36	149	52	17	183	255	186	233	65	198	116	45	66	242	25	3	66	148	47	80	49	208	171	163	161	190	-36	6.5
13	57	18	85	19	221	191	127	44	193	59	6	117	176	59	154	240	179	189	163	246	250	170	159	41	111	37	151	56	242	186	151	182	105	65	198	116	45	66	242	25	3	66	148	49	241	50	85	172	3	164	184	-36	6.75
13	57	19	16	19	222	191	127	45	136	59	28	67	16	59	136	22	156	189	163	181	214	41	44	39	9	25	255	175	21	178	66	34	44	65	198	116	45	66	242	25	3	66	148	51	224	49	87	171	220	160	91	-36	7.5
13	57	19	47	19	223	191	127	44	138	59	85	23	64	59	143	83	118	189	164	2	227	28	72	164	153	166	223	52	159	61	20	171	9	65	198	116	45	66	242	25	3	66	148	67	75	49	110	171	35	161	8	-36	6.75
13	57	19	78	19	224	191	127	46	107	59	15	216	0	59	174	187	7	189	163	60	27	162	11	152	156	164	243	187	143	53	97	184	103	65	198	116	45	66	242	25	3	66	148	80	16	49	31	170	67	22	124	-36	6.75
13	57	20	9	19	225	191	127	45	30	59	36	146	112	59	158	166	200	189	163	200	190	33	189	33	119	34	69	184	33	64	75	183	46	65	198	116	45	66	242	25	3	66	148	78	104	49	48	171	44	164	61	-35	6.5
13	57	20	40	19	226	191	127	45	54	59	56	180	112	59	162	57	32	189	163	182	204	34	145	33	8	33	1	172	23	48	172	189	43	65	198	116	45	66	242	25	3	66	148	83	34	49	23	169	182	30	57	-36	6.25
13	57	20	71	19	227	191	127	44	20	59	47	114	112	59	152	216	211	189	164	50	162	28	106	37	124	27	15	160	98	61	88	167	55	65	198	116	45	66	242	25	3	66	148	104	10	49	45	170	131	4	251	-36	6.75
13	57	21	2	19	228	191	127	43	128	59	77	171	192	59	136	249	191	189	164	114	117	162	175	167	33	28	27	48	210	178	135	187	251	65	198	116	45	66	242	25	3	66	148	101	168	48	119	170	59	21	12	-35	6.25
13	57	21	33	19	229	191	127	43	96	59	76	38	160	59	153	248	227	189	164	111	146	11	245	168	21	165	224	170	142	48	16	62	75	65	198	116	45	66	242	25	3	66	148	104	56	48	195	170	52	34	82	-36	6.5
13	57	21	64	19	230	191	127	44	175	59	16	40	176	59	153	136	18	189	163	254	140	164	174	32	157	26	213	184	4	182	224	52	17	65	198	116	45	66	242	25	3	66	148	99	243	48	105	170	205	25	242	-36	6.25
13	57	21	95	19	231	191	127	42	111	59	44	204	208	59	162	117	197	189	164	206	139	41	196	38	146	40	81	175	3	182	3	60	151	65	198	116	45	66	242	25	3	66	148	120	114	48	43	170	5	36	161	-36	6.5
13	57	22	26	19	232	191	127	41	96	59	48	33	112	59	184	162	46	189	165	30	118	30	235	153	247	158	147	57	127	185	185	182	194	65	198	116	45	66	242	25	3	66	148	126	72	48	84	170	152	32	148	-36	6.5
13	57	22	58	19	233	191	127	40	233	59	98	169	128	59	201	232	175	189	165	40	228	163	37	163	226	35	223	56	12	185	97	64	92	65	198	116	45	66	242	25	3	66	148	132	58	48	24	169	86	39	248	-36	6.5
13	57	22	89	19	234	191	127	40	70	59	30	248	128	59	209	17	245	189	165	115	18	146	1	161	80	163	154	47	137	183	81	186	174	65	198	116	45	66	242	25	3	66	148	140	254	48	9	170	84	35	27	-36	6.25
13	57	23	20	19	235	191	127	39	181	59	49	244	128	59	206	70	224	189	165	169	244	166	237	10	102	162	218	174	234	60	187	60	178	65	198	116	45	66	242	25	3	66	148	170	205	47	134	168	107	38	216	-36	6.5
13	57	23	51	19	236	191	127	39	200	58	206	216	64	59	201	180	98	189	165	183	95	156	20	21	73	167	127	172	185	181	222	181	14	65	198	116	45	66	242	25	3	66	148	178	138	47	103	169	238	37	38	-36	6.75
13	57	23	82	19	237	191	127	39	222	59	23	125	192	59	221	31	169	189	165	141	73	161	212	156	139	33	210	185	139	57	44	64	160	65	198	116	45	66	242	25	3	66	148	179	41	46	221	167	167	39	140	-35	6.5
13	57	24	13	19	238	191	127	39	76	59	31	77	240	59	237	1	64	189	165	173	8	166	145	39	55	31	241	182	230	171	226	44	244	65	198	116	45	66	242	25	3	66	148	182	234	46	213	169	12	35	102	-35	6.5
13	57	24	44	19	239	191	127	37	197	59	101	255	96	59	219	37	89	189	166	71	89	169	169	36	9	154	68	184	111	64	217	47	211	65	198	116	45	66	242	25	3	66	148	200	87	46	153	164	200	32	116	-35	6.25
13	57	24	75	19	240	191	127	37	217	59	22	163	48	59	205	114	55	189	166	103	210	167	154	31	102	158	203	46	7	178	52	188	238	65	198	116	45	66	242	25	3	66	148	205	60	46	183	167	148	30	247	-34	6.5
13	57	25	6	19	241	191	127	37	5	59	69	208	224	59	195	100	119	189	166	185	41	171	143	34	18	36	211	53	226	172	245	35	242	65	198	116	45	66	242	25	3	66	148	207	77	46	228	169	6	28	35	-35	6.5
13	57	25	37	19	242	191	127	35	142	59	5	17	160	59	191	40	95	189	167	93	103	38	87	155	151	37	158	56	89	190	171	61	166	65	198	116	45	66	242	25	3	66	148	211	54	46	76	168	247	37	32	-35	6.75
13	57	25	68	19	243	191	127	36	231	59	23	253	112	59	194	125	7	189	166	209	36	34	221	27	20	153	57	54	9	181	8	184	169	65	198	116	45	66	242	25	3	66	148	224	99	45	229	168	61	149	88	-36	6.25
13	57	26	0	19	244	191	127	36	151	59	60	224	208	59	187	85	235	189	166	239	20	168	203	140	156	27	129	50	83	62	62	56	213	65	198	116	45	66	242	25	3	66	148	219	119	46	57	165	101	152	147	-37	6.25
13	57	26	30	19	245	191	127	36	32	59	17	2	176	59	149	239	82	189	167	76	242	157	87	159	81	32	6	55	177	181	8	186	152	65	198	116	45	66	242	25	3	66	148	210	194	46	66	167	22	161	231	-40	6.5
13	57	26	62	19	246	191	127	36	24	59	85	49	208	59	133	233	10	189	167	75	96	36	111	37	249	147	57	43	17	60	83	181	169	65	198	116	45	66	242	25	3	66	148	214	164	45	208	165	160	161	8	-41	7
13	57	26	93	19	247	191	127	35	154	59	24	14	80	59	117	7	173	189	167	148	224	38	105	38	15	36	118	44	207	55	215	186	33	65	198	116	45	66	242	25	3	66	148	222	95	44	202	164	99	34	62	-39	6
13	57	27	24	19	248	191	127	35	95	59	53	22	192	59	133	186	160	189	167	155	182	162	3	159	133	31	17	55	67	188	57	45	97	65	198	116	45	66	242	25	3	66	148	218	55	44	242	168	79	159	10	-37	6
13	57	27	55	19	249	191	127	34	66	59	50	250	96	59	172	248	197	189	167	228	155	43	205	161	213	20	80	49	102	189	145	60	240	65	198	116	45	66	242	25	3	66	148	212	199	44	124	166	63	32	76	-37	6.5
13	57	27	86	19	250	191	127	34	69	59	8	210	144	59	232	9	39	189	167	165	135	164	53	157	119	26	216	180	189	175	172	40	239	65	198	116	45	66	242	25	3	66	148	210	191	43	228	167	9	160	202	-39	6.25
13	57	28	17	19	251	191	127	32	233	59	58	39	112	59	229	192	67	189	168	33	176	40	79	39	62	40	7	51	178	179	201	63	149	65	198	116	45	66	242	25	3	66	148	225	28	45	145	161	33	36	75	-38	6.25
13	57	28	48	19	252	191	127	33	176	59	112	190	128	59	147	169	138	189	168	31	220	166	56	160	20	164	222	56	235	184	128	186	17	65	198	116	45	66	242	25	3	66	148	224	115	45	113	165	182	159	221	-39	5.5
13	57	28	79	19	253	191	127	33	217	59	8	92	128	59	142	70	125	189	168	50	206	44	73	156	168	33	100	182	8	185	25	60	79	65	198	116	45	66	242	25	3	66	148	222	55	43	175	165	107	32	253	-38	6
13	57	29	10	19	254	191	127	33	115	59	36	142	192	59	168	25	2	189	168	59	238	30	137	157	198	163	151	45	120	185	59	177	27	65	198	116	45	66	242	25	3	66	148	221	13	44	179	164	63	160	228	-38	-0.5
13	57	29	41	19	255	191	127	32	59	59	36	4	144	59	192	89	221	189	168	152	54	169	78	165	189	164	88	180	88	54	29	64	51	65	198	116	45	66	242	25	3	66	148	230	72	43	73	156	177	34	62	-42	6.25
13	57	29	73	20	0	191	127	31	139	59	0	190	160	59	233	110	127	189	168	174	121	149	45	160	3	25	120	184	210	46	124	47	169	65	198	116	45	66	242	25	3	66	148	230	168	42	171	164	62	20	151	-48	6
13	57	30	4	20	1	191	127	29	254	59	68	251	0	60	17	152	195	189	168	218	56	168	255	161	213	156	216	183	91	64	57	56	234	65	198	116	45	66	242	25	3	66	148	228	0	43	96	152	211	160	17	-39	0.75
13	57	30	35	20	2	191	127	30	74	59	16	160	144	60	31	149	173	189	168	152	64	160	104	32	35	35	60	184	210	56	98	186	107	65	198	116	45	66	242	25	3	66	148	232	58	43	109	155	128	162	91	-40	6.25
