UTC(1),UTC(2),UTC(3),UTC(4),Pack_count(1),Pack_count(2),q0(1),q0(2),q0(3),q0(4),q1(1),q1(2),q1(3),q1(4),q2(1),q2(2),q2(3),q2(4),q3(1),q3(2),q3(3),q3(4),RollRate(1),RollRate(2),PitchRate(1),PitchRate(2),YawRate(1),YawRate(2),FreeAccX(1),FreeAccX(2),FreeAccY(1),FreeAccY(2),FreeAccZ(1),FreeAccZ(2),Lat(1),Lat(2),Lat(3),Lat(4),Long(1),Long(2),Long(3),Long(4),Height(1),Height(2),Height(3),Height(4),VelX(1),VelX(2),VelY(1),VelY(2),VelZ(1),VelZ(2),LoRaRSSI,LoRaSNR,
22,2,13,15,0,228,191,93,60,91,186,101,161,192,185,147,6,0,63,0,206,15,24,39,31,156,155,57,12,13,161,152,160,165,65,177,102,71,66,241,200,254,65,251,105,97,154,180,20,127,17,162,-97,3.00,
22,2,13,35,0,229,191,93,61,0,186,96,245,192,185,140,38,0,63,0,204,243,14,161,31,156,150,224,158,210,165,86,162,22,65,177,102,71,66,241,200,254,65,251,28,7,153,86,19,75,157,225,-97,2.75,
22,2,13,54,0,230,191,93,62,201,186,101,12,64,185,157,14,0,63,0,201,227,13,57,32,173,156,125,154,239,32,175,23,177,65,177,102,71,66,241,200,254,65,251,54,34,149,115,9,233,156,236,-98,3.00,
22,2,13,74,0,231,191,93,62,176,186,92,224,0,185,151,253,0,63,0,202,18,25,193,28,3,20,22,169,16,36,204,34,163,65,177,102,71,66,241,200,254,65,251,66,177,156,86,10,223,157,182,-97,3.00,
22,2,13,93,0,232,191,93,57,8,186,87,44,64,185,138,212,0,63,0,211,197,23,55,31,101,157,139,28,60,168,74,163,158,65,177,102,71,66,241,200,254,65,251,89,42,153,20,20,72,157,5,-97,2.50,
22,2,14,13,0,233,191,93,55,75,186,90,216,0,185,148,68,0,63,0,214,192,25,7,27,240,23,100,33,1,165,253,163,112,65,177,102,71,66,241,200,254,65,251,98,83,150,195,22,251,152,83,-97,2.75,
22,2,14,33,0,234,191,93,53,196,186,85,7,128,185,180,53,0,63,0,217,98,22,159,31,110,157,90,167,71,141,108,12,188,65,177,102,71,66,241,200,254,65,251,25,119,153,108,21,28,160,96,-97,2.75,
22,2,14,52,0,235,191,93,60,139,186,80,107,192,185,167,4,0,63,0,205,193,27,68,27,19,132,168,169,121,25,6,32,70,65,177,102,71,66,241,200,254,65,251,48,130,155,232,14,130,153,213,-97,3.00,
22,2,14,72,0,236,191,93,52,211,186,88,34,128,185,143,158,0,63,0,218,254,28,187,28,40,153,243,158,93,160,224,13,148,65,177,102,71,66,241,200,254,65,251,69,106,153,106,16,129,154,194,-97,2.75,
22,2,14,91,0,237,191,93,52,221,186,90,252,128,185,137,129,0,63,0,218,240,29,173,26,2,154,48,166,188,26,48,22,245,65,177,102,71,66,241,200,254,65,251,85,142,154,51,21,157,154,224,-97,2.75,
22,2,15,11,0,238,191,93,53,49,186,83,4,192,185,122,98,0,63,0,218,94,27,226,29,124,153,194,169,91,167,12,157,171,65,177,102,71,66,241,200,254,65,251,21,208,156,101,12,77,161,84,-97,2.50,
22,2,15,31,0,239,191,93,48,204,186,77,84,0,185,181,41,0,63,0,225,232,24,227,27,173,22,93,169,210,36,47,34,178,65,177,102,71,66,241,200,254,65,251,42,38,154,199,20,67,161,16,-97,2.50,
22,2,15,50,0,240,191,93,49,144,186,72,42,64,185,161,108,0,63,0,224,154,10,105,31,208,20,47,164,146,164,106,25,239,65,177,102,71,66,241,200,254,65,251,67,192,150,113,21,28,159,254,-97,2.75,
22,2,15,70,0,241,191,93,41,3,186,76,210,0,185,135,221,0,63,0,239,70,31,31,24,218,156,96,169,212,169,75,151,158,65,177,102,71,66,241,200,254,65,251,85,160,152,32,24,137,157,83,-97,2.75,
22,2,15,89,0,242,191,93,40,80,186,80,130,0,185,142,74,0,63,0,240,116,30,241,18,156,150,208,170,12,37,65,35,23,65,177,102,71,66,241,200,254,65,251,119,120,149,254,24,155,145,188,-98,2.50,
22,2,16,9,0,243,191,93,38,136,186,81,251,64,185,168,89,0,63,0,243,131,14,69,32,123,153,253,160,7,30,83,152,194,65,177,102,71,66,241,200,254,65,251,47,102,141,114,24,62,159,200,-98,2.50,
22,2,16,28,0,244,191,93,42,164,186,80,65,0,185,133,237,0,63,0,236,124,25,232,30,20,146,112,154,3,168,5,161,50,65,177,102,71,66,241,200,254,65,251,69,196,16,108,16,47,157,52,-97,2.75,
22,2,16,48,0,245,191,93,42,192,186,82,111,64,185,153,14,0,63,0,236,75,29,130,29,152,158,165,169,166,28,222,35,224,65,177,102,71,66,241,200,254,65,251,93,134,131,219,22,5,156,161,-97,3.00,
22,2,16,68,0,246,191,93,42,187,186,83,232,64,185,121,16,0,63,0,236,84,31,149,137,241,148,66,165,16,37,134,33,76,65,177,102,71,66,241,200,254,65,251,110,10,142,38,20,150,156,143,-97,2.75,
22,2,16,87,0,247,191,93,40,93,186,86,108,192,185,138,212,0,63,0,240,96,15,128,31,67,148,158,40,64,162,166,160,185,65,177,102,71,66,241,200,254,65,251,50,95,23,226,140,56,161,209,-98,2.50,
22,2,17,7,0,248,191,93,38,136,186,86,125,128,185,162,198,0,63,0,243,137,28,112,22,173,21,60,169,165,25,41,32,32,65,177,102,71,66,241,200,254,65,251,73,235,140,195,138,226,161,28,-97,3.50,
22,2,17,26,0,249,191,93,29,152,186,95,182,0,185,86,14,0,63,1,2,215,31,249,24,149,157,156,29,82,153,71,156,146,65,177,102,71,66,241,200,254,65,251,87,24,133,217,22,203,160,195,-98,3.25,
22,2,17,46,0,250,191,93,22,11,186,96,69,192,185,135,64,0,63,1,15,197,28,111,26,27,9,220,34,124,40,18,32,65,65,177,102,71,66,241,200,254,65,251,103,108,22,74,24,41,156,83,-97,3.50,
22,2,17,66,0,251,191,93,28,193,186,91,68,64,185,106,66,0,63,1,4,71,29,82,19,86,24,234,161,178,164,81,150,243,65,177,102,71,66,241,200,254,65,251,106,217,142,114,19,189,155,213,-97,3.25,
22,2,17,85,0,252,191,93,25,238,186,82,124,128,185,171,204,0,63,1,9,33,29,100,20,229,16,193,172,142,20,95,36,131,65,177,102,71,66,241,200,254,65,251,27,130,141,14,18,217,162,70,-97,3.50,
22,2,18,5,0,253,191,93,21,192,186,81,169,128,185,127,216,0,63,1,16,76,28,208,28,121,157,85,14,42,168,83,163,83,65,177,102,71,66,241,200,254,65,251,58,152,19,98,24,32,158,238,-97,3.25,
22,2,18,25,0,254,191,93,20,108,186,87,248,128,185,135,196,0,63,1,18,143,29,228,22,105,146,147,129,3,39,56,34,240,65,177,102,71,66,241,200,254,65,251,62,54,15,168,24,94,160,215,-98,3.00,
22,2,18,44,0,255,191,93,17,79,186,80,106,0,185,131,55,0,63,1,23,226,27,141,26,119,135,163,168,200,157,117,30,18,65,177,102,71,66,241,200,254,65,251,86,0,147,175,27,238,158,33,-97,3.00,
22,2,18,64,1,0,191,93,19,90,186,76,128,128,185,171,228,0,63,1,20,104,25,108,29,80,153,70,172,163,166,0,31,198,65,177,102,71,66,241,200,254,65,251,101,53,149,109,23,181,154,218,-97,3.25,
22,2,18,83,1,1,191,93,18,91,186,78,1,64,185,141,31,0,63,1,22,28,31,85,26,79,158,118,170,206,17,107,36,101,65,177,102,71,66,241,200,254,65,251,25,129,152,134,25,65,161,96,-97,3.00,
22,2,19,3,1,2,191,93,13,162,186,81,44,192,185,137,207,0,63,1,30,48,31,170,29,65,160,99,160,127,167,7,153,175,65,177,102,71,66,241,200,254,65,251,57,69,149,196,24,244,157,189,-97,2.50,
22,2,19,23,1,3,191,93,9,99,186,85,44,128,185,80,50,0,63,1,37,116,33,61,9,92,156,41,167,4,18,5,31,96,65,177,102,71,66,241,200,254,65,251,59,127,152,217,25,238,157,150,-97,2.50,
22,2,19,42,1,4,191,93,7,74,186,81,237,128,185,104,180,0,63,1,41,13,29,98,24,124,152,121,168,81,31,159,25,64,65,177,102,71,66,241,200,254,65,251,81,64,153,247,28,112,153,29,-98,2.75,
22,2,19,62,1,5,191,93,5,141,186,82,196,64,185,140,2,0,63,1,44,3,24,133,26,20,22,28,150,167,154,206,155,255,65,177,102,71,66,241,200,254,65,251,8,130,153,7,27,238,160,172,-97,2.50,
22,2,19,82,1,6,191,93,10,220,186,80,249,192,185,146,28,0,63,1,34,237,26,104,29,229,152,177,164,236,158,21,8,176,65,177,102,71,66,241,200,254,65,251,11,50,153,80,24,10,161,196,-97,1.50,
22,2,20,1,1,7,191,93,2,158,186,84,127,128,185,118,94,0,63,1,49,13,30,152,17,152,145,158,168,85,31,74,30,123,65,177,102,72,66,241,200,254,65,251,22,132,155,106,27,173,161,23,-98,3.00,
22,2,20,21,1,8,191,93,2,164,186,87,188,128,185,97,6,0,63,1,49,0,28,195,30,172,157,114,163,67,27,167,29,68,65,177,102,72,66,241,200,254,65,251,37,75,156,129,26,98,158,225,-98,1.50,
22,2,20,41,1,9,191,93,4,250,186,79,254,64,185,134,76,0,63,1,45,4,20,226,29,147,21,185,162,140,162,120,16,60,65,177,102,72,66,241,200,254,65,251,52,182,154,79,25,166,152,76,-98,1.25,
22,2,20,60,1,10,191,93,2,244,186,84,199,192,185,157,0,0,63,1,48,118,21,44,32,41,156,122,164,11,29,38,32,7,65,177,102,72,66,241,200,254,65,250,233,57,153,225,25,248,160,217,-99,2.50,
22,2,20,80,1,11,191,92,250,246,186,86,193,192,185,150,14,0,63,1,62,33,29,43,24,35,143,184,165,190,153,151,24,230,65,177,102,72,66,241,200,254,65,250,243,161,153,173,27,68,157,201,-97,4.50,
22,2,20,99,1,12,191,92,254,100,186,82,147,192,185,118,150,0,63,1,56,74,29,136,30,1,156,147,163,161,157,170,32,236,65,177,102,72,66,241,200,254,65,251,21,2,156,56,25,210,146,177,-97,3.00,
22,2,21,19,1,13,191,92,251,165,186,79,183,0,185,119,152,0,63,1,60,247,27,106,26,254,19,200,35,229,33,77,152,154,65,177,102,72,66,241,200,254,65,251,29,251,154,161,26,84,150,200,-98,2.50,
22,2,21,39,1,14,191,92,248,90,186,80,35,192,185,181,10,0,63,1,66,150,150,87,33,144,154,85,168,98,160,161,29,10,65,177,102,72,66,241,200,254,65,251,47,131,152,13,25,212,149,198,-97,2.75,
22,2,21,58,1,15,191,92,248,186,186,74,237,64,185,166,23,0,63,1,65,245,152,90,33,132,153,235,168,155,162,71,26,59,65,177,102,72,66,241,200,254,65,250,240,94,153,43,23,181,159,141,-97,3.25,
22,2,21,78,1,16,191,92,243,117,186,80,69,128,185,141,55,0,63,1,74,243,26,114,30,149,158,81,164,236,164,129,148,133,65,177,102,72,66,241,200,254,65,250,255,193,152,88,26,1,157,50,-98,2.75,
22,2,21,98,1,17,191,92,238,156,186,87,217,0,185,146,100,0,63,1,83,64,25,94,29,24,151,167,163,229,155,178,32,5,65,177,102,72,66,241,200,254,65,251,19,123,149,86,25,247,152,12,-97,2.50,
22,2,22,17,1,18,191,92,234,172,186,87,131,128,185,97,4,0,63,1,89,250,25,56,29,245,150,122,159,137,33,156,30,124,65,177,102,72,66,241,200,254,65,251,18,235,152,80,28,23,153,182,-97,2.50,
22,2,22,37,1,19,191,92,231,108,186,89,199,192,185,144,159,0,63,1,95,131,21,76,29,17,23,99,160,220,158,22,152,181,65,177,102,72,66,241,200,254,65,250,202,11,152,38,25,225,161,107,-97,2.25,
22,2,22,56,1,20,191,92,231,58,186,83,206,128,185,146,180,0,63,1,95,221,25,76,26,187,133,21,163,192,160,182,27,49,65,177,102,72,66,241,200,254,65,250,208,19,151,58,24,253,161,119,-97,2.50,
22,2,22,76,1,21,191,92,221,63,186,87,214,128,185,142,228,0,63,1,112,225,31,41,23,223,157,175,167,227,168,9,18,250,65,177,102,72,66,241,200,254,65,250,212,137,153,48,27,249,161,248,-97,2.50,
22,2,22,96,1,22,191,92,223,128,186,90,67,128,185,102,138,0,63,1,109,10,29,217,27,160,156,48,165,66,160,166,27,2,65,177,102,72,66,241,200,254,65,250,230,62,153,69,26,150,161,65,-97,2.50,
22,2,23,15,1,23,191,92,218,72,186,92,77,64,185,157,120,0,63,1,117,242,26,86,30,46,156,132,162,149,160,222,29,239,65,177,102,72,66,241,200,254,65,250,244,39,149,80,28,19,160,110,-98,2.25,
22,2,23,35,1,24,191,92,217,191,186,88,176,64,185,162,235,0,63,1,118,220,32,34,21,39,151,113,172,71,157,247,37,121,65,177,102,72,66,241,200,254,65,250,172,20,156,128,26,14,164,32,-97,2.75,
22,2,23,54,1,25,191,92,215,34,186,84,58,192,185,168,144,0,63,1,123,79,28,58,31,42,157,134,172,118,156,194,37,17,65,177,102,72,66,241,200,254,65,250,184,209,151,93,24,248,161,217,-97,2.50,
22,2,23,74,1,26,191,92,212,133,186,90,146,192,185,140,196,0,63,1,127,199,30,136,22,111,153,16,166,199,168,69,164,22,65,177,102,72,66,241,200,254,65,250,191,140,152,143,26,134,157,0,-97,2.50,
22,2,23,94,1,27,191,92,209,103,186,102,68,192,185,146,209,0,63,1,133,20,32,17,26,250,157,130,169,37,158,9,31,81,65,177,102,72,66,241,200,254,65,250,213,49,153,94,27,135,146,164,-97,2.25,
22,2,24,13,1,28,191,92,205,234,186,96,211,128,185,172,202,0,63,1,139,7,30,176,28,213,157,111,173,48,155,137,37,197,65,177,102,72,66,241,200,254,65,250,227,68,154,157,27,147,21,12,-97,2.75,
22,2,24,33,1,29,191,92,204,124,186,103,195,0,185,122,202,0,63,1,141,119,29,250,29,201,157,221,149,28,168,169,161,192,65,177,102,72,66,241,200,254,65,250,169,233,153,226,26,57,156,39,-97,2.75,
22,2,24,52,1,30,191,92,204,67,186,105,74,128,185,166,82,0,63,1,141,214,29,83,27,47,141,117,157,41,165,102,158,18,65,177,102,72,66,241,200,254,65,250,186,30,144,3,25,0,153,139,-97,3.25,
22,2,24,72,1,31,191,92,203,245,186,101,227,64,185,141,104,0,63,1,142,94,32,195,26,100,158,170,171,13,36,158,33,209,65,177,102,72,66,241,200,254,65,250,188,49,148,70,24,64,155,210,-97,2.75,
22,2,24,92,1,32,191,92,201,50,186,118,10,128,185,100,98,0,63,1,147,19,33,171,153,39,150,45,37,198,152,13,162,250,65,177,102,72,66,241,200,254,65,250,196,95,152,83,20,79,153,131,-97,2.75,
22,2,25,11,1,33,191,92,200,222,186,114,188,0,185,116,154,0,63,1,147,160,31,107,27,229,151,30,39,149,162,170,154,39,65,177,102,72,66,241,200,254,65,250,132,183,149,69,148,124,160,167,-96,2.25,
22,2,25,31,1,34,191,92,197,112,186,103,216,128,185,163,79,0,63,1,153,120,32,7,12,47,128,183,170,115,31,27,33,223,65,177,102,72,66,241,200,254,65,250,126,37,6,137,14,99,162,34,-96,2.75,
22,2,25,51,1,35,191,92,193,185,186,115,48,128,185,87,56,0,63,1,159,206,33,205,17,137,161,190,164,96,161,40,23,115,65,177,102,72,66,241,200,254,65,250,123,208,145,248,14,179,161,190,-97,4.25,
22,2,25,70,1,36,191,92,185,242,186,129,199,32,185,46,24,0,63,1,173,10,33,103,19,182,159,1,45,33,37,230,165,207,65,177,102,72,66,241,200,254,65,250,129,219,152,127,139,7,158,10,-98,4.75,
22,2,25,90,1,37,191,92,190,0,186,120,42,192,185,68,44,0,63,1,166,32,30,77,27,88,21,98,44,104,40,217,161,235,65,177,102,72,66,241,200,254,65,250,136,174,149,147,136,198,155,74,-97,2.75,
22,2,26,9,1,38,191,92,188,43,186,110,54,64,185,157,158,0,63,1,169,67,31,222,28,106,157,155,170,75,165,56,28,110,65,177,102,72,66,241,200,254,65,250,70,6,153,246,149,156,160,204,-97,2.25,
22,2,26,29,1,39,191,92,179,81,186,109,225,128,185,140,227,0,63,1,184,83,33,4,24,86,161,80,169,53,158,189,33,64,65,177,102,72,66,241,200,254,65,250,74,126,153,155,18,15,156,249,-96,3.00,
22,2,26,49,1,40,191,92,179,185,186,118,115,64,185,101,124,0,63,1,183,164,32,4,20,251,158,109,39,39,40,161,34,198,65,177,102,72,66,241,200,254,65,250,76,45,137,115,20,236,158,60,-97,2.25,
22,2,26,68,1,41,191,92,177,223,186,119,252,128,185,107,116,0,63,1,186,197,30,133,25,113,153,52,40,103,157,133,160,203,65,177,102,72,66,241,200,254,65,250,80,159,152,14,136,157,159,188,-98,2.75,
22,2,26,88,1,42,191,92,175,100,186,109,123,0,185,157,93,0,63,1,191,0,31,121,27,153,157,132,168,19,164,182,155,171,65,177,102,72,66,241,200,254,65,250,95,90,153,11,14,246,155,63,-96,3.25,
22,2,27,7,1,43,191,92,175,107,186,101,231,192,185,170,150,0,63,1,190,243,29,169,13,230,149,153,169,224,31,18,33,234,65,177,102,72,66,241,200,254,65,250,44,32,152,167,10,209,160,81,-97,3.00,
22,2,27,27,1,44,191,92,171,232,186,110,243,128,185,153,137,0,63,1,196,235,25,116,30,207,160,64,160,34,165,250,161,142,65,177,102,72,66,241,200,254,65,250,68,137,16,40,23,39,152,177,-97,3.00,
22,2,27,47,1,45,191,92,182,93,186,119,11,0,185,138,57,0,63,1,179,31,28,8,28,13,6,87,34,242,37,149,33,156,65,177,102,72,66,241,200,255,65,250,84,201,144,191,144,170,145,216,-97,3.25,
22,2,27,66,1,46,191,92,180,233,186,114,42,192,185,172,40,0,63,1,181,154,29,214,26,37,144,113,172,14,161,190,33,147,65,177,102,72,66,241,200,255,65,250,101,124,156,62,146,253,26,166,-98,2.50,
22,2,27,86,1,47,191,92,178,249,186,110,70,192,185,141,38,0,63,1,184,229,32,52,148,213,145,159,169,79,169,107,157,60,65,177,102,72,66,241,200,255,65,250,51,157,157,48,152,223,151,50,-97,2.75,
22,2,28,5,1,48,191,92,175,103,186,100,221,192,185,170,75,0,63,1,190,253,30,141,28,91,159,144,172,236,164,175,30,196,65,177,102,72,66,241,200,255,65,250,56,104,153,211,146,51,157,104,-97,3.00,
22,2,28,25,1,49,191,92,179,219,186,99,70,64,185,193,47,0,63,1,183,102,28,128,24,103,152,58,172,1,153,5,37,42,65,177,102,72,66,241,200,255,65,250,74,131,151,87,148,100,155,23,-98,2.00,
22,2,28,45,1,50,191,92,179,159,186,105,57,64,185,135,154,0,63,1,183,206,33,30,16,223,156,142,167,148,167,32,28,34,65,177,102,72,66,241,200,255,65,250,79,156,157,24,153,76,137,165,-97,2.25,
22,2,28,64,1,51,191,92,175,231,186,98,118,64,185,173,174,0,63,1,190,31,31,67,25,57,154,22,171,52,166,93,32,213,65,177,102,72,66,241,200,255,65,250,91,212,156,48,152,110,20,73,-97,2.00,
22,2,28,84,1,52,191,92,177,120,186,89,25,0,185,169,97,0,63,1,187,120,29,81,25,253,151,5,172,116,166,20,34,228,65,177,102,72,66,241,200,255,65,250,37,28,154,49,152,211,155,77,-97,2.25,
22,2,29,3,1,53,191,92,171,15,186,87,207,128,185,200,71,0,63,1,198,94,32,46,146,171,152,43,176,7,168,71,37,219,65,177,102,72,66,241,200,255,65,250,51,147,155,51,151,0,150,25,-97,2.50,
22,2,29,23,1,54,191,92,171,148,186,87,74,192,185,191,61,0,63,1,197,120,30,227,19,27,153,241,172,252,164,130,36,39,65,177,102,72,66,241,200,255,65,250,64,44,154,18,149,230,145,125,-97,2.75,
22,2,29,43,1,55,191,92,167,42,186,92,54,128,185,177,212,0,63,1,204,254,33,240,146,89,156,47,172,73,155,168,36,43,65,177,102,72,66,241,200,255,65,250,85,39,157,54,152,219,20,90,-98,2.75,
22,2,29,62,1,56,191,92,169,54,186,77,130,64,185,189,25,0,63,1,201,130,29,43,23,69,22,181,174,135,160,241,37,116,65,177,102,72,66,241,200,255,65,250,38,20,156,157,154,32,154,194,-99,2.25,
22,2,29,82,1,57,191,92,166,145,186,88,151,192,185,216,221,0,63,1,206,1,30,136,28,240,157,149,175,39,169,88,38,12,65,177,102,72,66,241,200,255,65,250,53,66,155,213,154,222,148,156,-99,2.75,
22,2,30,1,1,58,191,92,166,21,186,91,246,128,185,158,44,0,63,1,206,213,33,57,136,124,157,104,172,156,164,179,34,96,65,177,102,72,66,241,200,255,65,250,75,23,154,215,152,69,26,145,-98,2.75,
22,2,30,21,1,59,191,92,163,165,186,99,122,0,185,166,138,0,63,1,210,247,32,34,23,111,155,180,163,233,166,9,20,136,65,177,102,72,66,241,200,255,65,250,84,212,153,1,151,222,28,153,-98,3.00,
22,2,30,41,1,60,191,92,164,24,186,104,168,200,177,44,9,31,227,57,30,160,183,100,158,111,148,137,171,109,163,241,33,174,65,177,102,72,66,241,200,255,65,250,110,49,155,120,154,43,32,71,-95,-3.00,
22,2,30,60,1,61,191,92,160,120,186,111,211,192,185,183,250,0,63,1,216,94,34,199,17,65,160,28,173,16,152,197,34,250,65,177,102,72,66,241,200,255,65,250,63,162,157,34,155,196,26,32,-98,2.25,
22,2,30,80,1,62,191,92,153,30,186,97,81,192,185,184,52,0,63,1,228,220,32,49,147,128,144,5,172,197,164,12,33,202,65,177,102,72,66,241,200,255,65,250,78,73,153,124,153,224,22,104,-98,2.50,
22,2,31,0,1,63,191,92,155,65,186,109,63,192,185,178,234,0,63,1,225,55,32,130,22,99,156,94,169,18,163,119,31,254,65,177,102,72,66,241,200,255,65,250,99,92,149,124,152,153,22,11,-98,2.50,
22,2,31,19,1,64,191,92,156,198,186,110,162,128,185,191,90,0,63,1,222,164,32,72,14,230,142,185,170,229,25,178,32,34,65,177,102,72,66,241,200,255,65,250,121,86,153,116,154,83,3,174,-97,2.50,
22,2,31,39,1,65,191,92,156,11,186,108,215,192,185,159,15,0,63,1,223,224,33,199,14,24,156,137,170,189,160,137,29,115,65,177,102,72,66,241,200,255,65,250,146,191,154,145,152,153,26,176,-98,2.50,
22,2,31,58,1,66,191,92,153,234,186,110,16,128,185,168,37,0,63,1,227,128,33,183,152,209,148,48,170,52,35,249,32,181,65,177,102,72,66,241,200,255,65,250,99,57,153,169,153,155,149,215,-98,3.00,
22,2,31,78,1,67,191,92,157,190,186,103,194,128,185,162,107,0,63,1,220,255,31,95,25,251,157,131,168,105,19,24,32,78,65,177,102,72,66,241,200,255,65,250,121,224,153,67,151,234,20,167,-97,2.25,
22,2,31,98,1,68,191,92,151,250,186,109,216,64,185,139,20,0,63,1,230,203,32,212,152,12,152,211,163,202,158,241,32,6,65,177,102,72,66,241,200,255,65,250,138,100,153,50,148,9,20,249,-97,2.50,
22,2,32,17,1,69,191,92,153,153,186,106,192,0,185,167,225,0,63,1,228,7,31,18,25,105,153,190,168,73,36,16,36,72,65,177,102,72,66,241,200,255,65,250,159,32,153,186,153,148,2,241,-97,3.25,
22,2,32,37,1,70,191,92,152,142,186,114,24,64,185,150,170,0,63,1,229,205,31,149,22,217,152,196,25,163,36,88,24,199,65,177,102,72,66,241,200,255,65,250,116,196,153,74,155,10,156,120,-98,2.75,
22,2,32,57,1,71,191,92,152,55,186,109,217,128,185,145,191,0,63,1,230,96,31,62,26,187,157,46,167,106,161,184,156,8,65,177,102,72,66,241,200,255,65,250,148,78,155,94,154,64,0,60,-97,2.75,
22,2,32,76,1,72,191,92,150,114,186,105,106,128,185,171,195,0,63,1,233,104,30,90,26,222,157,31,169,80,19,82,33,203,65,177,102,72,66,241,200,255,65,250,170,82,156,6,150,213,28,62,-97,2.50,
22,2,32,96,1,73,191,92,152,215,186,113,26,128,185,157,170,0,63,1,229,79,31,18,23,140,155,109,165,110,39,175,38,124,65,177,102,72,66,241,200,255,65,250,195,57,156,100,152,215,28,246,-96,3.00,
22,2,33,16,1,74,191,92,151,169,186,114,173,128,185,168,207,0,63,1,231,82,30,210,28,235,159,75,152,37,141,67,148,14,65,177,102,72,66,241,200,255,65,250,205,63,153,202,154,179,22,44,-96,2.50,
22,2,33,35,1,75,191,92,152,170,186,109,22,128,185,173,21,0,63,1,229,160,31,89,18,181,140,67,169,72,165,255,151,10,65,177,102,72,66,241,200,255,65,250,174,125,155,208,156,251,152,150,-97,2.75,
22,2,33,55,1,76,191,92,146,218,186,115,54,128,185,161,200,0,63,1,239,124,32,181,14,98,157,199,166,17,143,170,156,246,65,177,102,72,66,241,200,255,65,250,192,151,156,121,153,255,151,54,-97,2.50,
22,2,33,74,1,77,191,92,148,253,186,106,88,128,185,181,245,0,63,1,235,222,28,121,23,106,137,190,166,173,153,49,32,39,65,177,102,72,66,241,200,255,65,250,212,62,155,119,154,84,152,31,-98,2.75,
22,2,33,94,1,78,191,92,145,240,186,111,177,128,185,189,85,0,63,1,241,8,28,50,30,73,158,74,164,223,162,203,24,14,65,177,102,72,66,241,200,255,65,250,241,160,154,158,156,23,22,41,-97,2.75,
22,2,34,14,1,79,191,92,150,30,186,107,249,0,185,174,10,0,63,1,233,243,29,198,23,30,150,82,166,189,35,23,38,217,65,177,102,72,66,241,200,255,65,251,3,201,153,218,154,113,24,229,-98,2.50,
22,2,34,33,1,80,191,92,149,133,186,108,98,128,185,170,65,0,63,1,234,246,29,186,29,153,158,204,165,79,164,76,149,209,65,177,102,72,66,241,200,255,65,250,223,43,155,17,156,170,149,186,-97,2.50,
22,2,34,53,1,81,191,92,150,127,186,102,49,64,185,160,175,0,63,1,233,79,31,185,147,141,4,143,168,99,160,167,27,53,65,177,102,72,66,241,200,255,65,250,239,160,156,74,156,136,154,94,-98,3.00,
22,2,34,72,1,82,191,92,147,247,186,99,198,128,185,190,105,0,63,1,237,151,29,109,28,229,156,159,170,52,150,196,32,203,65,177,102,73,66,241,200,255,65,251,6,103,155,161,156,161,148,251,-97,2.50,
22,2,34,92,1,83,191,92,150,81,186,97,149,192,185,174,37,0,63,1,233,158,29,111,27,123,154,54,169,140,165,180,29,239,65,177,102,73,66,241,200,255,65,251,24,210,154,119,154,7,137,136,-98,3.00,
22,2,35,12,1,84,191,92,149,18,186,107,120,192,185,164,242,0,63,1,235,185,29,242,28,221,158,102,167,236,169,24,154,10,65,177,102,73,66,241,200,255,65,250,242,121,156,34,156,105,156,17,-97,2.75,
22,2,35,31,1,85,191,92,148,255,186,107,155,64,185,185,18,0,63,1,235,214,29,192,26,194,154,21,170,113,150,165,28,161,65,177,102,73,66,241,200,255,65,251,14,149,155,225,156,208,146,233,-97,2.75,
22,2,35,51,1,86,191,92,148,130,186,102,147,64,185,168,105,0,63,1,236,171,30,231,28,62,157,108,171,148,167,247,150,66,65,177,102,73,66,241,200,255,65,251,36,117,155,96,157,61,149,55,-98,3.00,
22,2,35,71,1,87,191,92,144,152,186,99,62,128,185,163,176,0,63,1,243,80,31,61,147,208,20,44,168,142,163,168,151,218,65,177,102,73,66,241,200,255,65,251,46,178,153,245,156,109,130,92,-98,2.75,
22,2,35,90,1,88,191,92,143,10,186,103,240,192,185,141,172,0,63,1,245,248,30,177,26,103,154,25,157,125,168,102,163,225,65,177,102,73,66,241,200,255,65,251,57,32,151,242,155,115,23,174,-97,3.00,
22,2,36,10,1,89,191,92,142,116,186,106,235,0,185,154,26,0,63,1,246,243,30,208,24,21,153,27,166,160,164,130,12,200,65,177,102,73,66,241,200,255,65,251,9,120,154,12,155,202,153,82,-98,3.00,
22,2,36,29,1,90,191,92,143,66,186,95,6,192,185,162,210,0,63,1,245,154,30,0,23,253,134,250,170,92,160,106,32,90,65,177,102,73,66,241,200,255,65,251,21,219,153,64,156,163,156,71,-97,2.75,
22,2,36,49,1,91,191,92,139,12,186,102,209,192,185,176,171,0,63,1,252,188,31,98,26,241,155,41,170,0,161,160,157,90,65,177,102,73,66,241,200,255,65,251,36,54,156,72,157,219,158,109,-99,3.00,
22,2,36,69,1,92,191,92,141,205,186,100,148,128,185,132,21,0,63,1,248,15,31,119,25,191,153,172,165,241,160,93,157,221,65,177,102,73,66,241,200,255,65,251,38,120,154,123,156,132,158,238,-97,2.75,
22,2,36,88,1,93,191,92,132,189,186,102,146,64,185,143,160,0,63,2,7,112,30,115,28,75,158,53,151,194,165,180,158,44,65,177,102,73,66,241,200,255,65,251,56,124,155,56,152,169,148,3,-97,3.00,
22,2,37,8,1,94,191,92,132,218,186,107,183,128,185,143,137,0,63,2,7,63,30,203,26,208,151,253,32,3,36,216,29,43,65,177,102,73,66,241,200,255,65,251,14,7,156,76,154,181,157,29,-98,2.75,
22,2,37,27,1,95,191,92,134,162,186,99,240,192,185,136,22,0,63,2,4,58,30,144,29,137,157,202,16,43,33,37,24,239,65,177,102,73,66,241,200,255,65,251,35,175,157,120,141,227,149,198,-97,2.75,
22,2,37,47,1,96,191,92,133,55,186,97,110,64,185,130,101,0,63,2,6,165,30,212,21,83,144,232,34,125,156,9,162,180,65,177,102,73,66,241,200,255,65,251,55,231,156,103,145,192,20,101,-97,3.00,
22,2,37,67,1,97,191,92,132,237,186,104,202,64,185,132,239,0,63,2,7,33,30,39,30,49,158,3,40,113,41,40,158,148,65,177,102,73,66,241,200,255,65,251,72,112,157,75,148,248,25,5,-97,2.75,
22,2,37,86,1,98,191,92,131,158,186,107,142,128,185,128,64,0,63,2,9,89,29,243,28,164,156,147,42,203,32,51,165,52,65,177,102,73,66,241,200,255,65,251,45,226,157,168,150,137,5,73,-97,2.50,
22,2,38,6,1,99,191,92,131,17,186,97,141,0,185,138,62,0,63,2,10,68,29,6,29,62,157,171,35,152,164,73,154,3,65,177,102,73,66,241,200,255,65,251,67,57,157,115,149,81,141,118,-97,2.75,
22,2,38,26,1,100,191,92,128,63,186,98,172,192,185,150,88,0,63,2,15,13,30,2,24,14,154,244,152,194,38,53,33,208,65,177,102,73,66,241,200,255,65,251,68,145,156,119,152,66,154,171,-97,2.75,
22,2,38,45,1,101,191,92,127,64,186,102,0,64,185,128,44,0,63,2,16,190,27,218,29,52,157,126,40,221,31,170,154,49,65,177,102,73,66,241,200,255,65,251,81,32,155,174,152,15,156,62,-98,3.00,
22,2,38,65,1,102,191,92,122,153,186,102,63,128,185,158,203,0,63,2,24,162,25,173,26,128,22,27,41,175,32,37,159,66,65,177,102,73,66,241,200,255,65,251,82,70,155,113,149,135,149,79,-97,3.00,
22,2,38,84,1,103,191,92,123,7,186,96,202,128,185,160,196,0,63,2,23,232,28,61,25,232,148,171,33,246,156,99,161,235,65,177,102,73,66,241,200,255,65,251,37,240,156,6,150,65,156,210,-99,3.00,
22,2,39,4,1,104,191,92,119,208,186,97,111,64,185,162,52,0,63,2,29,93,30,188,20,117,152,93,158,22,28,73,19,78,65,177,102,73,66,241,200,255,65,251,48,18,154,235,153,29,151,80,-98,3.00,
22,2,39,23,1,105,191,92,118,116,186,95,64,128,185,154,103,0,63,2,31,167,24,196,31,53,157,238,32,247,32,222,27,18,65,177,102,73,66,241,200,255,65,251,67,57,152,194,150,192,147,196,-99,3.00,
22,2,39,43,1,106,191,92,116,224,186,98,57,64,185,170,182,0,63,2,34,83,22,135,31,92,154,147,37,225,157,96,20,32,65,177,102,73,66,241,200,255,65,251,68,188,151,224,152,142,153,171,-98,3.00,
22,2,39,63,1,107,191,92,116,152,186,93,24,0,185,151,58,0,63,2,34,207,28,154,28,212,155,77,22,62,166,122,162,51,65,177,102,73,66,241,200,255,65,251,65,65,151,171,153,209,157,245,-98,3.00,
22,2,39,82,1,108,191,92,116,38,186,87,193,0,185,154,102,0,63,2,35,146,28,164,29,209,159,124,168,164,17,73,28,221,65,177,102,73,66,241,200,255,65,251,29,84,153,67,155,54,160,205,-97,2.75,
22,2,40,2,1,109,191,92,113,20,186,92,165,0,185,163,199,0,63,2,40,198,28,39,28,129,154,122,167,44,159,51,2,80,65,177,102,73,66,241,200,255,65,251,23,251,148,199,156,204,161,254,-98,2.75,
22,2,40,21,1,110,191,92,111,92,186,94,192,128,185,184,131,0,63,2,43,172,21,36,31,187,156,149,157,223,168,39,159,57,65,177,102,73,66,241,200,255,65,251,14,111,144,8,156,221,163,42,-100,2.25,
22,2,40,41,1,111,191,92,114,156,186,99,117,64,185,175,60,0,63,2,38,41,27,32,25,38,144,149,165,244,32,23,28,129,65,177,102,73,66,241,200,255,65,251,19,224,148,210,156,5,161,214,-101,2.75,
22,2,40,61,1,112,191,92,112,79,186,102,92,64,185,177,41,0,63,2,42,14,29,69,26,39,154,26,164,162,26,2,31,161,65,177,102,73,66,241,200,255,65,250,238,54,153,110,156,229,163,192,-98,2.50,
22,2,40,80,1,113,191,92,111,44,186,97,237,0,185,166,178,0,63,2,44,0,27,140,30,41,153,139,30,203,157,46,156,200,65,177,102,73,66,241,200,255,65,250,238,48,151,207,156,40,161,187,-98,2.50,
22,2,41,0,1,114,191,92,112,41,186,94,189,64,185,168,77,0,63,2,42,79,25,52,32,35,156,29,29,203,162,122,161,155,65,177,102,73,66,241,200,255,65,250,247,176,140,6,154,181,159,250,-97,2.75,
22,2,41,20,1,115,191,92,110,32,186,101,39,192,185,173,121,0,63,2,45,195,29,27,24,73,13,133,165,117,157,37,158,111,65,177,102,73,66,241,200,255,65,250,252,180,144,161,155,70,160,37,-98,2.75,
22,2,41,39,1,116,191,92,108,20,186,102,242,128,185,180,235,0,63,2,49,60,29,103,30,23,158,7,162,159,31,168,159,205,65,177,102,73,66,241,200,255,65,251,2,139,146,135,155,100,160,45,-98,2.75,
22,2,41,59,1,117,191,92,108,40,186,96,166,128,185,180,153,0,63,2,49,24,25,83,29,68,0,111,150,207,156,210,153,183,65,177,102,73,66,241,200,255,65,250,209,58,16,71,157,6,162,206,-98,3.00,
22,2,41,78,1,118,191,92,109,4,186,96,199,192,185,179,178,0,63,2,47,164,17,117,33,32,156,36,28,19,159,130,157,123,65,177,102,73,66,241,200,255,65,250,221,195,21,163,156,95,160,52,-98,2.50,
22,2,41,98,1,119,191,92,109,221,186,100,205,192,185,139,223,0,63,2,46,54,28,59,28,57,153,53,32,69,143,64,160,147,65,177,102,73,66,241,200,255,65,250,226,116,146,82,156,93,157,198,-98,2.25,
22,2,42,18,1,120,191,92,110,74,186,98,107,0,185,75,248,0,63,2,45,127,29,111,24,53,148,123,38,138,28,153,159,39,65,177,102,73,66,241,200,255,65,250,226,131,153,115,154,46,157,176,-97,2.75,
22,2,42,37,1,121,191,92,110,90,186,93,193,192,185,72,110,0,63,2,45,100,26,145,25,186,24,194,40,198,37,61,12,68,65,177,102,73,66,241,200,255,65,250,201,145,151,95,156,11,160,42,-98,2.75,
22,2,42,57,1,122,191,92,110,234,186,93,130,64,185,100,32,0,63,2,44,110,134,117,32,248,156,99,40,168,162,79,163,11,65,177,102,73,66,241,200,255,65,250,209,47,146,218,155,25,158,133,-97,3.00,
22,2,42,76,1,123,191,92,108,15,186,100,232,192,185,58,138,0,63,2,49,67,26,236,28,16,152,176,41,130,30,139,160,219,65,177,102,73,66,241,200,255,65,250,213,82,151,40,153,251,152,205,-98,2.75,
22,2,42,96,1,124,191,92,109,126,186,105,11,128,185,10,222,0,63,2,46,217,29,208,25,161,145,253,45,175,40,191,159,179,65,177,102,73,66,241,200,255,65,250,229,24,154,16,152,158,146,213,-98,2.75,
22,2,43,16,1,125,191,92,107,96,186,88,46,0,185,105,98,0,63,2,50,110,18,151,32,66,151,88,39,239,28,107,163,171,65,177,102,73,66,241,200,255,65,250,245,88,152,18,153,41,150,6,-99,3.00,
22,2,43,35,1,126,191,92,108,45,186,84,182,64,185,46,22,0,63,2,49,17,24,26,29,72,143,60,23,150,164,227,20,245,65,177,102,73,66,241,200,255,65,250,217,47,153,83,154,162,156,94,-99,3.00,
22,2,43,55,1,127,191,92,104,185,186,90,145,128,185,78,176,0,63,2,54,232,23,114,32,65,159,8,36,118,32,91,141,64,65,177,102,73,66,241,200,255,65,250,231,211,153,77,151,124,144,124,-98,3.00,
22,2,43,75,1,128,191,92,104,206,186,78,217,64,185,14,194,0,63,2,54,197,22,119,28,146,1,50,41,60,160,213,160,120,65,177,102,73,66,241,200,255,65,250,234,82,153,168,141,209,24,59,-98,2.75,
22,2,43,94,1,129,191,92,107,20,186,83,18,0,185,15,234,0,63,2,50,239,23,18,28,215,16,111,38,84,28,211,161,96,65,177,102,73,66,241,200,255,65,250,247,237,154,209,149,7,23,144,-98,3.00,
22,2,44,14,1,130,191,92,109,53,186,73,50,128,185,7,184,0,63,2,47,83,22,209,29,23,18,24,162,91,29,35,155,64,65,177,102,73,66,241,200,255,65,250,243,114,156,87,141,65,21,81,-98,2.75,
22,2,44,33,1,131,191,92,107,224,186,74,204,192,184,210,184,0,63,2,49,150,25,160,29,22,155,63,160,194,157,229,159,13,65,177,102,73,66,241,200,255,65,250,227,73,157,122,7,96,135,219,-99,3.00,
22,2,44,53,1,132,191,92,102,163,186,72,75,0,184,213,80,0,63,2,58,118,23,114,27,119,0,252,20,51,33,198,30,250,65,177,102,73,66,241,200,255,65,250,227,188,156,161,19,75,143,102,-99,2.75,
22,2,44,73,1,133,191,92,95,102,186,69,56,0,184,236,216,0,63,2,70,182,23,25,29,26,11,233,160,46,36,94,33,115,65,177,102,73,66,241,200,255,65,250,234,130,155,126,22,180,20,126,-97,3.00,
22,2,44,92,1,134,191,92,86,210,186,71,229,0,184,232,232,0,63,2,85,50,25,250,27,177,139,112,165,50,163,123,157,190,65,177,102,73,66,241,200,255,65,250,243,135,156,102,21,14,25,28,-97,2.75,
22,2,45,12,1,135,191,92,86,204,186,67,239,64,184,141,28,0,63,2,85,62,26,110,31,162,158,246,164,206,164,47,164,99,65,177,102,73,66,241,200,255,65,250,218,181,158,20,20,135,9,237,-97,3.00,
22,2,45,31,1,136,191,92,77,79,186,66,93,64,184,179,4,0,63,2,101,70,23,14,30,8,147,232,150,245,24,135,145,20,65,177,102,73,66,241,200,255,65,250,217,89,156,173,24,182,17,20,-98,2.00,
22,2,45,51,1,137,191,92,79,94,186,64,127,64,184,211,172,0,63,2,97,205,20,81,32,48,154,165,165,169,159,156,32,3,65,177,102,73,66,241,200,255,65,250,221,103,156,94,23,203,18,155,-98,2.75,
22,2,45,71,1,138,191,92,70,156,186,69,228,64,184,184,88,0,63,2,112,154,28,253,26,72,8,72,164,189,154,110,13,20,65,177,102,73,66,241,200,255,65,250,223,158,157,125,20,251,18,207,-98,3.00,
22,2,45,90,1,139,191,92,69,214,186,70,58,192,184,129,124,0,63,2,113,230,30,5,27,32,153,64,164,46,30,107,156,198,65,177,102,73,66,241,200,255,65,250,217,187,157,230,18,26,152,7,-97,3.00,
22,2,46,10,1,140,191,92,68,112,186,63,175,192,184,227,208,0,63,2,116,68,25,232,31,179,155,219,166,117,164,119,158,96,65,177,102,73,66,241,200,255,65,250,184,186,157,223,16,233,157,123,-97,3.00,
22,2,46,29,1,141,191,92,59,192,186,60,115,64,184,185,252,0,63,2,130,241,16,100,28,139,26,47,164,232,165,74,147,166,65,177,102,73,66,241,200,255,65,250,193,224,154,106,16,39,159,128,-97,2.75,
22,2,46,49,1,142,191,92,62,128,186,65,229,64,184,230,224,0,63,2,126,73,25,49,27,45,148,91,164,126,34,82,35,179,65,177,102,73,66,241,200,255,65,250,200,20,157,56,16,183,156,7,-97,2.75,
22,2,46,69,1,143,191,92,55,76,186,71,28,192,184,12,80,0,63,2,138,112,26,124,29,22,154,80,40,44,159,234,160,38,65,177,102,73,66,241,200,255,65,250,203,123,156,176,20,207,15,12,-97,2.75,
22,2,46,88,1,144,191,92,56,146,186,69,103,64,183,243,0,0,63,2,136,74,25,145,30,14,147,218,37,22,32,202,24,109,65,177,102,73,66,241,200,255,65,250,208,211,157,112,145,255,148,144,-97,2.75,
22,2,47,8,1,145,191,92,55,150,186,63,79,128,184,188,200,0,63,2,137,244,22,60,29,247,22,60,167,211,37,42,30,127,65,177,102,73,66,241,200,255,65,250,180,136,158,24,6,241,155,252,-97,2.75,
22,2,47,27,1,146,191,92,39,87,186,60,132,64,184,101,192,0,63,2,165,90,23,252,31,97,156,136,168,32,168,95,160,201,65,177,102,73,66,241,200,255,65,250,176,178,156,187,18,79,155,105,-97,3.00,
22,2,47,47,1,147,191,92,25,151,186,70,20,192,184,76,48,0,63,2,188,130,23,58,28,55,15,203,40,141,34,238,156,252,65,177,102,73,66,241,200,255,65,250,175,48,156,50,25,120,145,29,-97,3.00,
22,2,47,66,1,148,191,92,21,254,186,66,43,192,184,92,200,0,63,2,194,146,11,58,32,169,156,86,41,29,35,214,33,14,65,177,102,73,66,241,200,255,65,250,167,116,153,133,26,25,24,81,-99,2.75,
22,2,47,86,1,149,191,92,21,162,186,60,226,0,184,122,64,0,63,2,195,45,24,204,29,119,20,158,154,54,164,140,161,218,65,177,102,73,66,241,200,255,65,250,129,229,156,61,22,156,153,90,-99,3.50,
22,2,48,6,1,150,191,92,20,194,186,56,112,128,183,245,112,0,63,2,196,167,23,129,30,215,156,69,152,148,158,192,155,196,65,177,102,73,66,241,200,255,65,250,130,8,156,186,20,103,150,67,-98,3.75,
22,2,48,25,1,151,191,92,13,213,186,60,126,128,181,202,0,0,63,2,208,79,24,220,27,94,150,97,42,38,38,136,157,41,65,177,102,73,66,241,200,255,65,250,128,145,155,91,27,244,128,64,-98,3.75,
22,2,48,45,1,152,191,92,3,24,186,56,40,64,184,74,80,0,63,2,226,96,148,12,31,147,140,250,36,170,154,122,164,233,65,177,102,73,66,241,200,255,65,250,129,201,150,231,28,141,16,210,-97,3.50,
22,2,48,64,1,153,191,92,0,215,186,56,196,128,184,161,212,0,63,2,230,37,18,21,31,89,153,86,22,76,36,82,24,87,65,177,102,73,66,241,200,255,65,250,121,49,154,112,25,239,10,176,-100,3.50,
22,2,48,84,1,154,191,91,254,163,186,62,42,0,55,108,96,0,63,2,233,218,28,107,23,5,145,216,42,95,39,182,158,167,65,177,102,73,66,241,200,255,65,250,97,175,156,134,26,226,151,253,-100,3.50,
22,2,49,4,1,155,191,92,1,230,186,57,4,192,184,64,128,0,63,2,228,97,141,54,32,24,149,10,44,206,162,219,167,146,65,177,102,73,66,241,200,255,65,250,97,236,155,61,24,251,144,94,-100,3.75,
22,2,49,23,1,156,191,92,1,18,186,50,137,0,184,150,252,0,63,2,229,196,24,81,28,63,24,93,26,158,31,181,145,252,65,177,102,73,66,241,200,255,65,250,103,183,155,231,24,136,16,190,-99,3.75,
22,2,49,43,1,157,191,91,251,188,186,53,108,128,184,204,96,0,63,2,238,184,29,104,29,76,156,165,165,21,34,112,30,178,65,177,102,73,66,241,200,255,65,250,108,54,157,139,23,210,26,157,-97,3.75,
22,2,49,62,1,158,191,91,251,71,186,47,0,128,183,192,16,0,63,2,239,127,26,171,28,214,151,78,41,83,9,232,160,149,65,177,102,73,66,241,200,255,65,250,108,112,156,141,22,173,14,155,-100,3.50,
22,2,49,82,1,159,191,91,250,207,186,45,249,128,184,182,248,0,63,2,240,72,19,252,32,186,156,57,35,202,17,189,163,73,65,177,102,73,66,241,200,255,65,250,76,23,155,70,21,133,155,59,-102,3.25,
22,2,50,2,1,160,191,91,250,34,186,35,24,0,184,192,52,0,63,2,241,108,24,212,25,243,23,24,168,94,28,106,146,176,65,177,102,73,66,241,200,255,65,250,70,240,156,126,23,180,155,137,-98,3.75,
22,2,50,21,1,161,191,91,243,127,186,43,174,128,184,183,108,0,63,2,252,147,28,15,29,161,157,130,162,112,163,17,153,109,65,177,102,73,66,241,200,255,65,250,69,223,156,196,23,234,153,38,-97,3.75,
22,2,50,41,1,162,191,91,233,0,186,45,10,64,184,168,112,0,63,3,14,45,18,2,32,59,157,220,38,215,37,55,30,92,65,177,102,73,66,241,200,255,65,250,65,49,152,135,24,26,154,153,-97,3.75,
22,2,50,60,1,163,191,91,234,38,186,41,189,0,184,176,204,0,63,3,12,68,144,6,32,165,155,251,25,95,36,160,35,165,65,177,102,73,66,241,200,255,65,250,37,145,153,150,26,72,157,254,-99,3.75,
22,2,50,80,1,164,191,91,235,209,186,38,241,192,184,181,52,0,63,3,9,117,22,199,29,48,21,120,167,92,163,130,162,51,65,177,102,73,66,241,200,255,65,250,31,1,157,4,23,39,159,171,-97,3.50,
22,2,51,0,1,165,191,91,230,199,186,40,155,192,184,92,64,0,63,3,17,236,27,197,29,77,157,91,155,31,157,163,14,240,65,177,102,73,66,241,200,255,65,250,29,207,157,38,24,32,160,35,-96,3.75,
22,2,51,19,1,166,191,91,213,40,186,42,165,64,184,174,240,0,63,3,47,117,24,71,31,62,156,147,32,203,40,50,29,131,65,177,102,73,66,241,200,255,65,250,38,104,154,254,27,89,157,91,-98,3.75,
22,2,51,39,1,167,191,91,224,33,186,38,4,64,184,165,148,0,63,3,29,20,8,175,29,212,24,71,160,154,162,208,26,28,65,177,102,73,66,241,200,255,65,250,45,198,156,23,24,224,152,125,-98,3.50,
22,2,51,58,1,168,191,91,222,86,186,34,76,0,185,1,164,0,63,3,32,21,23,109,29,86,10,6,170,133,153,66,33,193,65,177,102,73,66,241,200,255,65,250,21,103,158,5,24,66,156,161,-97,3.75,
22,2,51,78,1,169,191,91,200,141,186,33,66,192,184,174,156,0,63,3,68,150,21,250,28,125,17,179,167,0,31,94,155,137,65,177,102,73,66,241,200,255,65,250,18,132,156,78,27,7,153,9,-99,3.75,
22,2,51,98,1,170,191,91,187,142,186,41,255,192,185,1,146,0,63,3,90,82,21,91,29,79,150,203,164,152,169,54,162,28,65,177,102,73,66,241,200,255,65,250,18,224,153,66,27,188,151,193,-98,3.75,
22,2,52,17,1,171,191,91,192,227,186,43,167,128,185,3,116,0,63,3,81,103,24,201,30,145,155,45,170,244,21,135,28,213,65,177,102,73,66,241,200,255,65,250,16,106,155,197,22,42,155,23,-98,3.75,
22,2,52,37,1,172,191,91,192,11,186,49,230,0,184,180,172,0,63,3,82,207,26,15,29,246,154,160,165,62,28,14,25,250,65,177,102,73,66,241,200,255,65,249,255,68,156,208,21,112,157,192,-97,3.75,
22,2,52,57,1,173,191,91,183,124,186,50,45,64,184,125,144,0,63,3,97,35,22,174,30,176,152,80,28,100,164,122,22,48,65,177,102,73,66,241,200,255,65,249,243,224,156,99,128,110,160,237,-97,3.75,
22,2,52,76,1,174,191,91,174,252,186,52,128,64,184,120,160,0,63,3,111,88,26,226,31,23,156,168,162,129,165,240,162,117,65,177,102,73,66,241,200,255,65,249,236,219,156,51,130,88,160,82,-99,4.00,
22,2,52,96,1,175,191,91,173,213,186,51,148,64,184,80,176,0,63,3,113,66,27,124,25,250,143,198,170,29,33,118,28,14,65,177,102,73,66,241,200,255,65,249,252,82,156,66,21,192,153,183,-97,3.50,
22,2,53,16,1,176,191,91,172,218,186,55,61,128,184,121,0,0,63,3,114,234,28,222,28,78,153,199,169,194,160,43,145,106,65,177,102,73,66,241,200,255,65,250,5,79,157,253,17,244,144,9,-98,3.75,
22,2,53,35,1,177,191,91,172,161,186,57,135,64,183,226,240,0,63,3,115,69,27,151,27,90,150,211,31,55,161,27,158,100,65,177,102,73,66,241,200,255,65,249,254,44,157,247,9,197,152,18,-97,3.75,
22,2,53,55,1,178,191,91,172,179,186,55,216,64,183,107,192,0,63,3,115,42,22,171,31,191,154,121,32,226,37,43,25,184,65,177,102,73,66,241,200,255,65,250,7,37,157,155,8,117,145,252,-97,4.00,
22,2,53,74,1,179,191,91,161,233,186,51,213,128,183,172,96,0,63,3,133,48,24,52,28,177,23,77,162,54,167,121,163,0,65,177,102,73,66,241,200,255,65,250,20,218,157,136,13,63,11,111,-97,4.00,
22,2,53,94,1,180,191,91,160,207,186,53,35,128,53,168,0,0,63,3,135,8,25,111,31,228,156,228,161,11,30,28,154,252,65,177,102,73,66,241,200,255,65,250,25,113,158,174,141,68,144,3,-97,4.00,
22,2,54,14,1,181,191,91,159,158,186,52,75,0,55,241,64,0,63,3,137,5,25,204,27,13,24,198,30,110,26,85,164,97,65,177,102,73,66,241,200,255,65,250,25,111,158,250,16,218,152,136,-97,4.00,
22,2,54,33,1,182,191,91,160,8,186,52,169,64,56,23,136,0,63,3,136,83,24,79,30,206,153,46,165,18,166,67,150,52,65,177,102,73,66,241,200,255,65,250,21,229,159,138,15,68,153,227,-97,3.75,
22,2,54,53,1,183,191,91,151,94,186,60,65,0,55,40,192,0,63,3,150,200,28,149,26,158,147,28,164,88,161,31,9,176,65,177,102,73,66,241,200,255,65,250,25,69,158,64,146,25,154,35,-98,4.00,
22,2,54,73,1,184,191,91,151,83,186,62,19,64,56,47,32,0,63,3,150,218,27,2,30,114,156,203,39,68,35,9,23,115,65,177,102,73,66,241,200,255,65,250,35,62,158,255,19,128,153,158,-97,3.75,
22,2,54,92,1,185,191,91,139,28,186,55,190,128,55,16,64,0,63,3,171,60,19,111,29,194,15,218,153,64,162,188,160,12,65,177,102,73,66,241,200,255,65,250,48,185,157,160,20,61,152,70,-98,3.50,
22,2,55,12,1,186,191,91,138,10,186,63,38,128,55,128,112,0,63,3,172,255,26,52,30,206,156,210,163,25,28,213,161,13,65,177,102,73,66,241,200,255,65,250,42,73,159,44,21,222,154,79,-97,4.00,
22,2,55,31,1,187,191,91,135,212,186,65,153,192,56,122,168,0,63,3,176,177,30,25,27,249,157,45,28,139,141,43,160,39,65,177,102,73,66,241,200,255,65,250,48,11,160,45,21,140,145,107,-97,3.50,
22,2,55,51,1,188,191,91,122,182,186,56,103,192,56,62,192,0,63,3,198,143,25,188,28,244,154,24,21,138,26,181,26,131,65,177,102,73,66,241,200,255,65,250,57,113,158,154,23,124,20,192,-98,3.50,
22,2,55,71,1,189,191,91,122,41,186,56,12,192,184,27,200,0,63,3,199,122,23,86,28,175,16,149,168,59,33,158,36,247,65,177,102,73,66,241,200,255,65,250,40,164,157,136,22,170,154,104,-98,3.50,
22,2,55,90,1,190,191,91,127,243,186,62,78,192,56,13,32,0,63,3,189,214,25,0,30,193,154,161,161,137,152,126,141,216,65,177,102,73,66,241,200,255,65,250,38,104,157,244,17,58,154,50,-98,3.75,
22,2,56,10,1,191,191,91,125,5,186,73,77,128,56,19,32,0,63,3,194,185,26,199,30,134,154,202,36,182,33,17,160,92,65,177,102,73,66,241,200,255,65,250,20,130,160,10,142,186,157,92,-98,3.50,
22,2,56,29,1,192,191,91,95,216,186,69,190,192,56,19,64,0,63,3,243,69,25,228,26,218,24,32,38,117,38,83,24,140,65,177,102,73,66,241,200,255,65,250,17,157,157,166,20,63,156,165,-97,3.50,
22,2,56,49,1,193,191,91,82,226,186,63,106,128,180,232,0,0,63,4,8,204,140,2,32,65,156,47,36,116,169,0,162,47,65,177,102,73,66,241,200,255,65,250,21,136,156,111,25,78,155,40,-100,3.75,
22,2,56,69,1,194,191,91,82,92,186,57,76,192,56,1,208,0,63,4,9,172,14,119,29,218,151,40,158,134,25,126,27,51,65,177,102,73,66,241,200,255,65,250,24,75,155,61,24,46,148,39,-100,3.25,
22,2,56,88,1,195,191,91,82,135,186,73,68,0,56,93,40,0,63,4,9,101,24,185,31,238,158,66,40,233,37,207,160,150,65,177,102,73,66,241,200,255,65,250,25,105,157,176,24,229,148,79,-102,3.25,
22,2,57,8,1,196,191,91,84,136,186,69,88,128,57,1,240,0,63,4,6,16,24,218,27,172,22,26,39,246,164,65,166,206,65,177,102,73,66,241,200,255,65,250,14,245,158,246,25,77,152,239,-103,3.00,
22,2,57,27,1,197,191,91,75,145,186,55,205,128,56,56,120,0,63,4,20,243,21,208,29,252,150,218,164,99,161,214,163,166,65,177,102,73,66,241,200,255,65,250,7,180,158,235,24,169,152,186,-104,3.00,
22,2,57,47,1,198,191,91,59,202,186,53,7,0,56,19,136,0,63,4,47,34,17,23,27,108,23,68,157,127,25,124,29,77,65,177,102,73,66,241,200,255,65,250,2,24,156,175,26,60,146,71,-97,3.75,
22,2,57,67,1,199,191,91,48,76,186,50,38,64,55,177,208,0,63,4,66,51,148,77,32,156,153,42,152,147,165,184,157,245,65,177,102,73,66,241,200,255,65,249,248,185,154,32,26,40,20,39,-97,3.75,
22,2,57,86,1,200,191,91,47,36,186,56,6,0,56,76,112,0,63,4,68,25,27,9,26,79,148,216,35,9,163,147,165,174,65,177,102,73,66,241,200,255,65,249,230,48,157,37,25,218,148,95,-100,3.75,
22,2,58,6,1,201,191,91,50,97,186,50,20,128,56,133,128,0,63,4,62,189,25,149,29,239,153,226,36,254,38,127,155,153,65,177,102,73,66,241,200,255,65,249,231,62,158,211,26,146,20,64,-101,3.75,
22,2,58,25,1,202,191,91,55,14,186,46,62,0,183,179,176,0,63,4,54,255,13,53,29,9,25,120,24,50,164,227,162,185,65,177,102,73,66,241,200,255,65,249,225,109,159,76,24,69,152,60,-99,3.50,
22,2,58,45,1,203,191,91,42,159,186,39,189,128,55,206,192,0,63,4,75,154,149,146,32,210,153,16,30,167,158,12,164,199,65,177,102,73,66,241,200,255,65,249,215,2,157,208,25,241,156,116,-99,4.00,
22,2,58,65,1,204,191,91,37,164,186,45,219,64,54,74,0,0,63,4,83,218,21,4,28,155,17,24,32,67,20,159,150,118,65,177,102,73,66,241,200,255,65,249,206,216,158,33,25,90,157,68,-98,3.50,
22,2,58,84,1,205,191,91,37,183,186,49,80,128,56,73,104,0,63,4,83,187,29,51,25,14,148,139,27,80,29,227,156,30,65,177,102,73,66,241,200,255,65,249,193,236,159,236,25,54,158,149,-97,3.75,
22,2,59,4,1,206,191,91,31,152,186,50,164,128,55,167,144,0,63,4,93,220,21,248,30,44,145,6,38,233,37,7,161,77,65,177,102,73,66,241,200,255,65,249,191,155,159,206,23,89,159,53,-98,3.75,
22,2,59,23,1,207,191,91,15,105,186,38,30,64,184,77,0,0,63,4,120,160,152,76,33,60,1,104,162,178,32,192,18,42,65,177,102,73,66,241,200,255,65,249,194,239,157,176,26,79,155,84,-98,4.00,
22,2,59,43,1,208,191,91,13,165,186,38,95,64,183,202,192,0,63,4,123,142,145,142,33,64,157,134,163,222,164,154,160,107,65,177,102,73,66,241,200,255,65,249,190,121,158,180,28,76,152,54,-99,4.00,
22,2,59,63,1,209,191,91,20,162,186,39,229,64,54,137,192,0,63,4,112,0,24,103,29,75,153,208,161,105,31,144,25,118,65,177,102,73,66,241,200,255,65,249,187,51,159,167,26,238,148,146,-100,4.00,
22,2,59,82,1,210,191,91,20,75,186,46,216,0,55,93,224,0,63,4,112,144,20,151,29,238,141,159,39,87,40,132,31,190,65,177,102,73,66,241,200,255,65,249,167,209,159,126,27,126,154,207,-97,4.00,
22,3,0,2,1,211,191,91,3,42,186,45,13,64,183,248,144,0,63,4,140,224,17,253,30,75,27,107,36,61,25,93,161,242,65,177,102,73,66,241,200,255,65,249,159,52,158,216,27,11,152,218,-99,3.75,
22,3,0,22,1,212,191,91,6,86,186,40,208,128,184,46,0,0,63,4,135,162,21,192,32,154,154,126,161,144,158,130,161,160,65,177,102,73,66,241,200,255,65,249,152,117,160,32,24,138,154,17,-97,4.00,
22,3,0,41,1,213,191,90,252,218,186,41,221,0,184,97,120,0,63,4,151,76,21,79,28,158,22,56,138,130,37,55,29,39,65,177,102,73,66,241,200,255,65,249,152,194,159,77,27,66,156,88,-97,3.75,
22,3,0,61,1,214,191,90,252,247,186,39,26,0,184,73,96,0,63,4,151,33,140,134,32,182,155,55,36,251,33,132,152,192,65,177,102,73,66,241,200,255,65,249,144,176,158,147,28,56,157,151,-98,3.75,
22,3,0,80,1,215,191,90,248,147,186,39,12,128,183,245,48,0,63,4,158,95,17,10,29,203,23,183,30,92,36,152,27,232,65,177,102,73,66,241,200,255,65,249,148,4,158,205,27,192,157,20,-98,3.75,
22,3,1,0,1,216,191,90,241,197,186,43,173,0,182,192,64,0,63,4,169,153,21,233,32,79,155,94,36,237,36,31,158,170,65,177,102,73,66,241,200,255,65,249,147,70,159,85,28,223,156,122,-97,3.75,
22,3,1,19,1,217,191,90,240,93,186,34,147,128,184,147,76,0,63,4,171,235,17,100,28,48,24,44,156,186,27,200,161,89,65,177,102,73,66,241,200,255,65,249,146,74,159,6,28,44,154,106,-99,4.00,
22,3,1,39,1,218,191,90,243,205,186,32,181,64,183,204,96,0,63,4,166,66,151,91,32,250,153,193,37,72,162,151,162,14,65,177,102,193,66,121,192,207,23,250,139,207,158,128,26,97,158,89,-96,-0.50,
22,3,1,59,1,219,191,90,243,240,186,34,114,192,183,138,112,0,63,4,166,7,136,0,28,108,24,1,35,100,40,101,19,32,65,177,102,73,66,241,200,255,65,249,124,145,159,201,28,88,160,16,-98,3.50,
22,3,1,78,1,220,191,90,229,48,186,36,109,0,184,51,168,0,63,4,190,90,23,1,32,108,156,244,33,225,159,68,157,3,65,177,102,73,66,241,200,255,65,249,119,137,159,208,26,137,159,11,-99,3.75,
22,3,1,98,1,221,191,90,228,6,186,27,57,128,183,134,128,0,63,4,192,74,24,13,29,231,151,119,158,51,32,27,27,3,65,177,102,73,66,241,200,255,65,249,117,198,160,109,28,5,156,211,-101,3.50,
22,3,2,18,1,222,191,90,231,202,186,24,39,64,183,216,160,0,63,4,186,15,22,31,31,31,155,226,167,159,34,143,153,90,65,177,102,73,66,241,200,255,65,249,122,230,160,139,28,235,20,86,-101,3.00,
22,3,2,37,1,223,191,90,213,35,186,32,238,192,55,5,0,0,63,4,216,209,20,134,30,56,155,80,33,56,164,254,164,95,65,177,102,73,66,241,200,255,65,249,128,94,159,11,29,239,58,236,-88,-5.75,
22,3,2,57,1,224,191,90,213,104,186,32,120,192,55,198,32,0,63,4,88,87,20,35,54,36,131,204,39,127,20,175,18,116,65,177,102,73,66,241,200,255,65,249,126,9,160,77,29,131,22,244,-97,0.25,
22,3,2,76,1,225,191,90,219,129,186,36,113,0,184,120,232,204,63,196,206,82,26,150,25,70,17,97,164,210,33,191,23,197,65,177,102,73,66,241,200,255,65,249,122,251,161,25,26,197,20,173,-96,3.75,
22,3,2,96,1,226,191,90,202,147,186,25,163,192,184,108,24,0,63,4,234,55,26,45,25,129,18,120,168,76,160,84,156,48,65,177,102,73,66,241,88,255,77,48,130,65,159,245,27,175,23,253,-91,0.00,
22,3,3,16,1,227,191,90,200,0,186,28,230,0,184,180,140,0,63,4,238,115,23,255,30,195,155,61,164,85,160,149,154,217,65,177,102,73,66,241,200,255,65,249,138,161,159,154,27,9,19,105,-99,3.50,
22,3,3,35,1,228,191,90,202,130,186,25,47,0,183,12,224,0,63,4,234,82,27,33,27,74,152,163,164,164,150,11,151,205,65,177,102,73,66,241,200,255,65,249,135,141,160,55,28,90,17,192,-97,3.75,
22,3,3,55,1,229,191,90,189,20,186,30,57,64,184,114,32,0,63,5,0,107,28,184,29,247,157,88,157,31,162,121,14,8,65,177,102,73,66,241,200,255,65,249,136,21,160,17,27,53,18,239,-97,3.50,
22,3,3,75,1,230,191,90,187,88,186,26,30,0,184,135,180,0,63,5,3,71,29,23,23,181,18,255,166,155,27,66,32,217,65,177,102,73,66,241,200,255,65,249,141,141,160,82,25,120,15,158,-97,3.75,
22,3,3,94,1,231,191,90,188,165,186,22,118,64,184,99,8,0,63,5,1,36,26,250,30,145,157,110,166,223,160,193,144,226,65,177,102,73,66,241,200,255,65,249,139,151,160,21,24,50,152,253,-98,3.00,
22,3,4,14,1,232,191,90,185,196,186,24,122,0,184,114,72,0,63,5,5,226,29,138,27,14,156,103,166,218,165,46,162,29,65,177,102,73,66,241,200,255,65,249,141,50,160,88,24,70,156,88,-98,3.25,
22,3,4,33,1,233,191,90,184,206,186,23,28,128,183,58,128,0,63,5,7,116,31,49,28,91,158,155,28,79,36,111,155,173,65,177,102,73,66,241,200,255,65,249,130,23,160,165,25,61,158,19,-97,3.25,
22,3,4,53,1,234,191,90,190,37,186,21,225,64,184,143,160,0,63,4,254,168,27,173,28,255,152,78,161,152,36,72,150,171,65,177,102,73,66,241,200,255,65,249,137,94,160,199,22,69,156,75,-98,3.00,
22,3,4,73,1,235,191,90,179,108,186,12,62,64,184,137,144,0,63,5,16,76,27,248,31,98,157,248,168,7,164,121,32,166,65,177,102,73,66,241,200,255,65,249,152,195,160,236,27,205,21,36,-98,2.75,
22,3,4,92,1,236,191,90,178,108,186,13,173,192,184,129,216,0,63,5,17,243,28,234,30,20,157,224,164,170,33,28,29,203,65,177,102,73,66,241,200,255,65,249,168,244,160,218,27,181,27,112,-97,2.75,
22,3,5,12,1,237,191,90,180,60,186,4,32,64,183,22,224,0,63,5,14,246,28,66,28,200,155,222,161,57,29,68,28,34,65,177,102,73,66,241,200,255,65,249,172,186,160,197,28,189,27,104,-97,3.25,
22,3,5,32,1,238,191,90,168,11,186,16,70,64,184,148,200,0,63,5,34,252,28,241,26,71,15,171,21,36,159,19,152,126,65,177,102,73,66,241,200,255,65,249,191,141,160,82,26,227,29,114,-97,3.00,
22,3,5,51,1,239,191,90,156,20,186,8,34,64,184,154,180,0,63,5,54,162,28,220,28,7,151,19,162,82,36,20,13,12,65,177,102,73,66,241,200,255,65,249,199,76,160,33,27,37,28,217,-97,3.25,
22,3,5,71,1,240,191,90,150,145,186,13,38,64,184,151,8,0,63,5,63,172,28,221,25,159,148,193,162,144,30,188,26,215,65,177,102,73,66,241,200,255,65,249,206,250,160,37,26,199,25,132,-98,2.75,
22,3,5,91,1,241,191,90,147,63,186,9,18,64,184,101,16,0,63,5,69,35,28,147,30,65,157,16,8,43,161,184,157,144,65,177,102,73,66,241,200,255,65,249,219,221,159,41,25,144,10,69,-98,2.75,
22,3,6,10,1,242,191,90,146,125,186,10,225,192,184,173,192,0,63,5,70,95,27,76,30,86,156,47,20,245,36,217,16,130,65,177,102,73,66,241,200,255,65,249,219,89,159,46,27,112,145,42,-97,3.00,
22,3,6,30,1,243,191,90,144,45,186,8,134,64,182,97,0,0,63,5,74,38,29,32,20,212,21,168,40,94,34,204,159,222,65,177,102,73,66,241,200,255,65,249,229,4,159,13,28,66,25,66,-97,3.00,
22,3,6,49,1,244,191,90,125,51,186,10,111,128,184,181,68,0,63,5,105,65,28,230,30,252,157,165,160,52,26,92,152,131,65,177,102,73,66,241,200,255,65,249,235,211,157,220,26,241,24,101,-98,3.00,
22,3,6,69,1,245,191,90,119,216,186,5,234,128,184,73,144,0,63,5,114,10,29,228,30,2,158,217,23,54,33,8,14,20,65,177,102,73,66,241,200,255,65,249,248,36,157,196,26,36,25,26,-97,3.25,
22,3,6,89,1,246,191,90,118,162,186,5,67,64,184,11,168,0,63,5,116,3,28,164,29,66,155,254,35,4,27,179,148,84,65,177,102,73,66,241,200,255,65,249,251,42,156,207,26,31,7,69,-96,2.75,
22,3,7,8,1,247,191,90,116,234,186,6,97,0,184,107,120,0,63,5,118,211,26,1,29,20,152,60,39,97,20,59,163,91,65,177,102,73,66,241,200,255,65,249,241,238,156,28,27,160,150,101,-98,2.50,
22,3,7,28,1,248,191,90,123,98,186,1,106,192,184,163,96,0,63,5,108,61,28,118,30,134,157,192,163,36,36,100,27,142,65,177,102,73,66,241,200,255,65,249,244,43,157,110,28,69,156,184,-97,3.00,
22,3,7,48,1,249,191,90,117,210,186,2,11,192,184,96,24,0,63,5,117,83,28,211,26,155,152,182,33,165,23,126,160,221,65,177,102,73,66,241,200,255,65,250,3,226,157,161,25,224,20,170,-97,3.25,
22,3,7,67,1,250,191,90,101,9,185,254,191,128,184,213,80,0,63,5,144,206,26,73,31,92,157,159,16,153,34,166,149,95,65,177,102,73,66,241,200,255,65,250,23,231,154,215,26,228,28,46,-97,3.50,
22,3,7,87,1,251,191,90,101,109,185,246,34,0,184,162,40,0,63,5,144,40,26,17,25,89,13,154,160,0,19,93,161,64,65,177,102,73,66,241,200,255,65,250,23,69,154,229,27,185,26,211,-98,3.75,
22,3,8,6,1,252,191,90,105,55,185,253,8,0,184,153,24,0,63,5,137,246,29,44,26,57,148,72,160,194,150,87,156,164,65,177,102,73,66,241,200,255,65,250,37,219,156,213,27,59,28,23,-98,3.50,
22,3,8,26,1,253,191,90,117,108,186,2,41,64,184,147,100,0,63,5,117,251,30,24,20,10,143,223,33,51,34,105,156,151,65,177,102,73,66,241,200,255,65,250,49,0,158,217,26,247,25,214,-98,3.25,
22,3,8,45,1,254,191,90,99,22,185,250,37,0,184,165,12,0,63,5,148,0,27,172,29,136,154,108,161,39,19,16,157,99,65,177,102,73,66,241,200,255,65,250,63,45,157,27,26,20,150,135,-97,3.50,
22,3,8,65,1,255,191,90,104,228,185,242,145,0,184,141,164,0,63,5,138,126,25,254,28,227,146,249,161,44,158,237,162,203,65,177,102,73,66,241,200,255,65,250,82,56,157,195,24,225,151,24,-98,3.50,
22,3,8,85,2,0,191,90,105,14,185,237,42,0,183,237,112,0,63,5,138,60,28,91,22,163,4,242,152,221,27,218,159,30,65,177,102,73,66,241,200,255,65,250,87,117,158,9,27,96,151,214,-98,3.75,
22,3,9,4,2,1,191,90,111,227,185,246,17,0,184,180,144,0,63,5,127,16,26,216,30,27,154,73,162,55,35,204,153,218,65,177,102,73,66,241,200,255,65,250,103,202,158,164,28,112,151,125,-97,3.25,
22,3,9,24,2,2,191,90,104,185,185,232,220,0,184,91,88,0,63,5,138,199,27,103,27,203,146,20,165,58,31,129,153,203,65,177,102,73,66,241,200,255,65,250,116,237,158,134,28,234,19,189,-97,3.25,
22,3,9,43,2,3,191,90,106,14,185,241,216,128,184,135,188,0,63,5,136,152,27,142,28,82,13,35,25,94,158,124,164,24,65,177,102,73,66,241,200,255,65,250,134,184,159,49,28,120,23,104,-98,2.75,
22,3,9,63,2,4,191,90,83,249,185,224,113,0,184,223,124,0,63,5,172,176,23,187,28,145,21,249,163,238,35,89,19,138,65,177,102,73,66,241,200,255,65,250,154,229,156,142,28,30,20,162,-97,3.50,
22,3,9,83,2,5,191,90,81,84,185,233,8,128,184,209,208,0,63,5,177,2,25,55,30,26,155,28,20,147,160,179,162,20,65,177,102,73,66,241,200,255,65,250,145,197,157,37,28,97,136,124,-98,3.25,
22,3,10,2,2,6,191,90,83,191,185,228,168,128,184,120,88,0,63,5,173,19,27,124,30,28,155,30,149,213,29,64,161,210,65,177,102,73,66,241,200,255,65,250,159,90,157,154,28,165,9,252,-97,3.25,
22,3,10,22,2,7,191,90,78,30,185,230,58,128,184,204,176,0,63,5,182,64,25,77,31,48,156,78,25,45,37,72,31,154,65,177,102,73,66,241,200,255,65,250,180,155,156,192,29,146,12,250,-97,3.25,
22,3,10,42,2,8,191,90,78,91,185,205,26,128,184,143,36,0,63,5,181,221,18,145,29,139,18,227,154,115,157,176,158,228,65,177,102,73,66,241,200,255,65,250,190,137,155,251,28,29,16,190,-97,2.75,
22,3,10,61,2,9,191,90,76,81,185,211,28,0,184,185,76,0,63,5,185,48,22,22,30,97,145,234,160,198,26,46,157,108,65,177,102,73,66,241,200,255,65,250,185,91,156,41,28,214,145,53,-97,2.75,
22,3,10,81,2,10,191,90,73,125,185,210,87,128,184,82,40,0,63,5,189,206,25,238,24,75,19,27,37,25,35,123,159,240,65,177,102,72,66,241,200,255,65,250,192,188,156,60,29,240,152,204,-97,3.25,
22,3,11,0,2,11,191,90,66,228,185,208,227,128,184,229,220,0,63,5,200,151,25,99,32,19,156,253,33,134,154,31,158,123,65,177,102,72,66,241,200,255,65,250,202,93,156,116,28,108,156,99,-97,3.25,
22,3,11,20,2,12,191,90,63,4,185,198,241,0,185,6,64,0,63,5,206,230,27,3,25,237,19,252,160,165,36,147,34,70,65,177,102,72,66,241,200,255,65,250,215,18,156,55,28,224,19,85,-97,3.50,
22,3,11,40,2,13,191,90,66,196,185,196,151,0,184,227,148,0,63,5,200,200,24,14,32,7,156,109,160,13,158,183,136,120,65,177,102,72,66,241,200,255,65,250,233,110,156,5,28,109,7,148,-98,3.50,
22,3,11,59,2,14,191,90,65,243,185,197,109,0,184,182,36,0,63,5,202,27,26,60,28,130,150,11,37,253,158,53,164,214,65,177,102,72,66,241,200,255,65,250,228,189,156,29,29,144,147,45,-97,3.75,
22,3,11,79,2,15,191,90,51,251,185,196,182,0,184,235,176,0,63,5,224,224,25,2,31,117,154,176,35,195,39,33,24,63,65,177,102,72,66,241,200,255,65,250,243,211,153,99,29,226,21,149,-97,4.00,
22,3,11,98,2,16,191,90,67,105,185,206,103,0,184,232,4,0,63,5,199,184,25,248,27,73,14,92,37,133,26,238,160,234,65,177,102,72,66,241,200,255,65,251,4,1,156,47,30,46,27,49,-98,4.25,
22,3,12,18,2,17,191,90,59,42,185,194,0,0,184,71,8,0,63,5,213,45,25,198,29,123,138,148,37,249,150,214,155,248,65,177,102,72,66,241,200,255,65,251,12,215,154,32,29,74,27,90,-98,4.00,
22,3,12,37,2,18,191,90,55,250,185,208,130,128,184,231,20,0,63,5,218,96,25,202,28,186,148,97,31,229,35,214,149,155,65,177,102,72,66,241,200,255,65,251,22,83,154,104,28,186,22,234,-98,4.00,
22,3,12,57,2,19,191,90,55,140,185,205,167,128,184,199,228,0,63,5,219,19,25,254,25,29,11,84,37,18,160,11,161,143,65,177,102,72,66,241,200,255,65,251,19,10,154,20,29,132,17,27,-98,3.50,
22,3,12,77,2,20,191,90,33,214,185,209,176,128,184,233,104,0,63,5,254,115,14,84,30,242,152,78,40,161,37,31,18,60,65,177,102,72,66,241,200,255,65,251,26,118,129,246,28,131,153,25,-97,3.50,
22,3,12,96,2,21,191,90,41,14,185,211,71,0,185,3,162,0,63,5,242,177,20,193,30,241,153,115,143,95,36,13,153,146,65,177,102,72,66,241,200,255,65,251,31,99,148,217,29,148,155,161,-97,3.75,
22,3,13,16,2,22,191,90,53,58,185,204,66,128,184,255,52,0,63,5,222,216,9,158,31,55,147,177,36,58,167,53,160,186,65,177,102,72,66,241,200,255,65,251,40,76,151,95,27,241,156,115,-97,3.25,
22,3,13,35,2,23,191,90,53,68,185,204,104,0,185,0,152,0,63,5,222,201,17,253,29,96,130,145,29,178,37,150,25,206,65,177,102,72,66,241,200,255,65,251,32,64,152,39,29,119,157,134,-97,4.00,
22,3,13,55,2,24,191,90,41,108,185,206,70,0,184,232,24,0,63,5,242,25,144,36,31,226,144,113,19,48,156,45,161,110,65,177,102,72,66,241,200,255,65,251,41,218,144,148,29,45,156,239,-97,3.75,
22,3,13,75,2,25,191,90,42,163,185,206,0,0,184,235,52,0,63,5,240,30,20,34,28,59,23,128,160,150,165,80,163,108,65,177,102,72,66,241,200,255,65,251,52,228,150,44,29,199,150,153,-98,4.00,
22,3,13,94,2,26,191,90,36,101,185,200,190,0,184,249,16,0,63,5,250,69,13,244,32,39,157,76,24,208,30,96,162,196,65,177,102,72,66,241,200,255,65,251,71,50,150,86,30,37,25,39,-97,4.25,
22,3,14,14,2,27,191,90,48,241,185,200,229,128,184,215,44,0,63,5,229,217,21,235,26,170,15,153,30,206,162,184,156,22,65,177,102,72,66,241,200,255,65,251,82,165,153,6,29,247,28,16,-97,4.00,
22,3,14,33,2,28,191,90,48,218,185,201,174,0,185,46,72,0,63,5,229,248,0,86,32,162,156,166,165,121,153,248,32,43,65,177,102,72,66,241,200,255,65,251,68,38,152,107,29,189,23,53,-98,3.50,
22,3,14,53,2,29,191,90,42,141,185,206,230,0,184,248,100,0,63,5,240,65,24,88,28,211,148,105,161,69,30,112,158,151,65,177,102,72,66,241,200,255,65,251,79,218,152,5,30,8,28,89,-98,3.75,
22,3,14,73,2,30,191,90,38,146,185,208,1,128,184,190,28,0,63,5,246,192,26,79,31,127,157,64,24,86,155,78,153,74,65,177,102,72,66,241,200,255,65,251,83,226,154,75,28,202,23,222,-97,4.00,
22,3,14,92,2,31,191,90,40,179,185,199,82,128,184,227,152,0,63,5,243,68,25,65,26,87,21,118,162,124,164,158,162,4,65,177,102,72,66,241,200,255,65,251,89,119,153,158,29,144,21,46,-97,3.50,
22,3,15,12,2,32,191,90,40,9,185,204,133,0,184,218,232,0,63,5,244,88,25,95,30,42,152,119,158,143,36,198,34,67,65,177,102,72,66,241,200,255,65,251,71,238,152,249,31,11,142,171,-97,3.50,
22,3,15,32,2,33,191,90,28,223,185,205,18,0,184,207,36,0,63,6,6,136,23,44,27,111,131,189,161,64,29,140,158,115,65,177,102,72,66,241,200,255,65,251,81,62,151,11,30,2,15,252,-98,3.75,
22,3,15,51,2,34,191,90,25,199,185,214,41,128,184,224,168,0,63,6,11,146,24,91,28,145,2,116,24,121,157,248,163,46,65,177,102,72,66,241,200,255,65,251,94,146,150,212,28,243,8,236,-98,4.00,
22,3,15,71,2,35,191,90,36,8,185,209,83,0,184,221,80,0,63,5,250,222,26,74,29,120,152,128,159,203,37,201,147,158,65,177,102,72,66,241,200,255,65,251,101,207,154,151,30,77,152,215,-97,3.50,
22,3,15,91,2,36,191,90,8,92,185,207,119,128,184,164,164,0,63,6,39,226,28,22,29,177,155,62,33,176,152,171,164,189,65,177,102,72,66,241,200,255,65,251,109,218,144,89,30,34,153,245,-97,3.75,
22,3,16,10,2,37,191,90,6,207,185,210,81,0,185,1,192,0,63,6,42,103,24,234,28,98,149,65,28,72,28,101,156,144,65,177,102,72,66,241,200,255,65,251,88,249,142,50,30,138,157,59,-98,3.00,
22,3,16,30,2,38,191,90,19,192,185,204,157,128,184,173,164,0,63,6,21,92,25,253,28,251,144,62,36,35,36,193,28,47,65,177,102,72,66,241,200,255,65,251,116,74,150,166,30,133,8,116,-97,3.50,
22,3,16,50,2,39,191,90,5,145,185,214,111,0,184,204,148,0,63,6,44,109,28,12,29,253,152,76,33,81,32,216,159,248,65,177,102,72,66,241,200,255,65,251,129,3,149,189,28,157,136,194,-97,3.00,
22,3,16,69,2,40,191,90,6,183,185,199,209,0,184,166,88,0,63,6,42,144,27,138,25,75,2,113,28,227,156,186,161,15,65,177,102,72,66,241,200,255,65,251,148,246,152,32,27,1,140,215,-98,3.00,
22,3,16,89,2,41,191,90,7,168,185,201,250,128,184,192,208,0,63,6,41,7,26,104,29,215,157,19,154,183,37,9,160,150,65,177,102,72,66,241,200,255,65,251,164,94,150,236,28,188,153,40,-97,3.00,
22,3,17,8,2,42,191,90,10,83,185,193,126,128,183,131,80,0,63,6,36,177,24,63,26,255,14,190,40,193,157,254,153,223,65,177,102,72,66,241,200,255,65,251,149,85,148,80,29,58,156,152,-97,2.75,
22,3,17,28,2,43,191,89,253,124,185,210,255,0,184,159,60,0,63,6,57,141,24,4,32,23,158,43,36,18,35,175,32,106,65,177,102,72,66,241,200,255,65,251,156,9,149,82,28,58,158,168,-97,3.75,
22,3,17,48,2,44,191,89,254,192,185,209,109,128,184,66,144,0,63,6,55,130,24,133,28,216,148,179,28,118,37,192,29,122,65,177,102,72,66,241,200,255,65,251,169,244,150,74,28,96,157,170,-98,3.50,
22,3,17,67,2,45,191,89,252,185,185,213,44,128,183,168,112,0,63,6,58,200,27,18,30,247,157,162,33,188,161,138,161,151,65,177,102,72,66,241,200,255,65,251,190,76,151,238,28,118,21,177,-97,3.50,
22,3,17,87,2,46,191,89,250,190,185,215,227,0,184,83,168,0,63,6,61,254,24,142,28,217,149,51,38,68,36,227,158,207,65,177,102,72,66,241,200,255,65,251,168,198,150,27,29,112,150,231,-97,4.00,
22,3,18,6,2,47,191,90,1,135,185,212,140,128,184,85,160,0,63,6,51,0,24,195,30,106,152,65,35,181,149,50,156,173,65,177,102,72,66,241,200,255,65,251,193,227,152,129,30,47,28,113,-97,3.75,
22,3,18,26,2,48,191,89,254,174,185,228,35,128,184,231,96,0,63,6,55,154,27,170,28,37,147,63,164,128,162,27,23,1,65,177,102,72,66,241,200,255,65,251,215,20,153,186,29,178,31,167,-97,3.75,
22,3,18,45,2,49,191,89,248,80,185,228,58,0,184,129,252,0,63,6,65,244,24,150,32,8,158,153,39,18,148,190,156,239,65,177,102,72,66,241,200,255,65,251,233,205,151,220,29,204,33,71,-97,3.75,
22,3,18,65,2,50,191,89,247,115,185,238,187,128,184,177,200,0,63,6,67,89,24,38,29,112,152,127,40,91,27,243,165,37,65,177,102,72,66,241,200,255,65,251,247,253,151,117,29,90,32,156,-97,3.75,
22,3,18,85,2,51,191,89,249,241,185,214,26,128,184,186,232,0,63,6,63,78,23,113,31,167,152,173,162,127,159,182,162,89,65,177,102,72,66,241,200,255,65,251,231,170,152,157,29,29,30,65,-97,3.75,
22,3,19,4,2,52,191,89,250,63,185,226,67,0,184,253,204,0,63,6,62,210,25,187,31,125,157,167,169,4,37,8,12,164,65,177,102,72,66,241,200,255,65,251,241,207,155,95,28,164,28,122,-97,4.25,
22,3,19,24,2,53,191,89,248,107,185,238,32,0,184,171,188,0,63,6,65,200,25,208,28,23,149,164,27,223,164,35,162,59,65,177,102,72,66,241,200,255,65,251,252,32,155,167,26,238,20,121,-97,3.75,
22,3,19,43,2,54,191,89,241,148,185,231,34,0,184,207,88,0,63,6,76,225,20,148,29,170,151,193,39,242,161,236,161,155,65,177,102,72,66,241,200,255,65,252,21,120,153,178,28,5,26,3,-97,4.00,
22,3,19,63,2,55,191,89,251,109,185,222,231,128,184,217,192,0,63,6,60,228,25,183,25,154,25,48,150,221,38,105,24,144,65,177,102,72,66,241,200,255,65,252,42,209,156,31,28,52,28,62,-97,3.75,
22,3,19,83,2,56,191,89,248,83,185,223,220,0,185,1,102,0,63,6,65,237,28,243,30,8,157,73,160,196,155,145,155,87,65,177,102,72,66,241,200,255,65,252,21,110,157,195,28,181,24,55,-97,3.75,
22,3,20,2,2,57,191,89,241,49,185,226,221,0,184,198,240,0,63,6,77,132,28,60,32,66,159,2,36,91,24,114,157,188,65,177,102,72,66,241,200,255,65,252,42,84,156,88,28,64,27,245,-98,3.75,
22,3,20,22,2,58,191,89,225,121,185,232,216,128,184,204,184,0,63,6,103,2,25,35,32,17,156,234,35,80,37,91,133,96,65,177,102,72,66,241,200,255,65,252,57,243,152,122,27,1,23,141,-98,3.75,
22,3,20,41,2,59,191,89,224,88,185,229,69,0,184,201,16,0,63,6,104,216,28,175,26,187,150,10,158,204,161,221,155,22,65,177,102,72,66,241,200,255,65,252,83,224,154,73,26,172,23,154,-97,3.75,
22,3,20,61,2,60,191,89,223,162,185,223,213,128,184,182,224,0,63,6,105,251,28,124,30,87,157,19,131,254,30,209,152,43,65,177,102,72,66,241,200,255,65,252,71,181,154,89,26,170,0,69,-98,3.25,
22,3,20,81,2,61,191,89,222,154,185,235,218,128,184,231,140,0,63,6,107,168,27,95,24,138,17,253,35,69,37,153,159,44,65,177,102,72,66,241,200,255,65,252,97,253,153,233,27,110,20,89,-97,3.75,
22,3,21,0,2,62,191,89,210,222,185,241,168,128,185,2,142,0,63,6,126,170,24,177,31,75,157,64,29,215,13,63,158,131,65,177,102,72,66,241,200,255,65,252,111,197,146,63,26,226,150,78,-98,3.75,
22,3,21,20,2,63,191,89,206,96,185,236,187,128,185,20,10,0,63,6,133,239,28,0,27,76,12,172,25,95,33,72,153,8,65,177,102,72,66,241,200,255,65,252,121,196,148,160,27,30,152,200,-98,3.75,
22,3,21,40,2,64,191,89,206,192,185,228,100,0,185,11,54,0,63,6,133,86,26,244,30,147,156,249,20,187,30,208,155,86,65,177,102,72,66,241,200,255,65,252,139,36,150,179,27,4,153,131,-98,4.00,
22,3,21,59,2,65,191,89,205,226,185,233,53,0,185,13,216,0,63,6,134,189,26,123,25,36,18,197,158,128,161,173,160,57,65,177,102,72,66,241,200,255,65,252,122,8,148,251,27,211,157,54,-97,3.50,
22,3,21,79,2,66,191,89,205,95,185,226,164,128,184,236,196,0,63,6,135,147,27,220,28,150,150,239,150,52,35,152,24,98,65,177,102,72,66,241,200,255,65,252,142,101,146,141,28,81,156,146,-98,3.75,
22,3,21,99,2,67,191,89,205,19,185,231,131,0,184,182,76,0,63,6,136,13,28,100,24,155,148,8,34,20,29,248,162,102,65,177,102,72,66,241,200,255,65,252,158,119,151,98,28,91,153,169,-97,4.00,
22,3,22,18,2,68,191,89,201,196,185,215,219,128,184,161,236,0,63,6,141,108,25,127,31,44,157,180,36,163,32,218,159,104,65,177,102,72,66,241,200,255,65,252,179,221,149,139,28,164,149,27,-98,4.00,
22,3,22,38,2,69,191,89,195,18,185,223,201,128,184,175,8,0,63,6,152,61,28,52,28,114,151,202,29,35,32,70,153,68,65,177,102,72,66,241,200,255,65,252,197,213,149,197,26,6,151,99,-97,3.75,
22,3,22,57,2,70,191,89,192,212,185,230,197,128,185,1,78,0,63,6,155,223,27,133,29,13,153,37,161,253,150,75,158,215,65,177,102,72,66,241,200,255,65,252,175,39,146,164,28,6,156,171,-97,3.50,
22,3,22,77,2,71,191,89,197,84,185,236,30,128,184,218,0,0,63,6,148,149,24,75,30,186,157,3,39,190,156,239,160,131,65,177,102,72,66,241,200,255,65,252,197,201,149,17,28,6,144,116,-98,4.00,
22,3,22,96,2,72,191,89,198,241,185,233,7,128,184,164,28,0,63,6,145,249,27,255,27,79,149,84,36,175,32,93,161,189,65,177,102,72,66,241,200,255,65,252,218,129,151,54,29,38,17,225,-97,4.25,
22,3,23,16,2,73,191,89,192,202,185,229,210,128,184,234,152,0,63,6,155,236,28,37,29,26,152,204,27,19,163,24,153,165,65,177,102,72,66,241,200,255,65,252,228,134,150,94,29,5,17,163,-97,4.25,
22,3,23,36,2,74,191,89,192,26,185,227,169,128,184,230,20,0,63,6,157,10,26,234,30,4,157,114,159,240,154,35,157,33,65,177,102,72,66,241,200,255,65,252,204,236,149,255,29,150,151,3,-97,4.50,
22,3,23,55,2,75,191,89,199,160,185,241,106,128,185,10,202,0,63,6,144,220,24,29,32,68,157,5,32,92,32,29,160,22,65,177,102,72,66,241,200,255,65,252,228,42,152,215,30,187,9,31,-97,4.25,
22,3,23,75,2,76,191,89,197,226,185,245,116,128,184,195,132,0,63,6,147,175,27,50,27,129,144,145,33,94,15,198,152,130,65,177,102,72,66,241,200,255,65,252,241,109,155,86,29,28,15,10,-97,3.50,
22,3,23,95,2,77,191,89,198,148,185,244,230,128,184,229,224,0,63,6,146,144,28,159,30,155,157,254,161,17,34,115,21,181,65,177,102,72,66,241,200,255,65,253,3,3,156,93,30,92,23,168,-97,4.25,
22,3,24,14,2,78,191,89,194,242,185,247,150,0,184,221,124,0,63,6,152,112,27,222,26,151,136,49,143,152,160,196,163,92,65,177,102,72,66,241,200,255,65,253,19,241,156,161,29,4,27,41,-98,4.00,
22,3,24,34,2,79,191,89,191,90,186,0,241,192,185,56,12,0,63,6,158,60,26,169,30,240,156,157,21,96,145,14,156,109,65,177,102,72,66,241,200,255,65,252,247,14,155,163,29,99,16,73,-98,4.00,
22,3,24,53,2,80,191,89,190,172,185,248,1,128,185,29,22,0,63,6,159,90,27,28,24,118,9,222,160,96,30,141,155,56,65,177,102,72,66,241,200,255,65,253,0,128,155,181,30,60,145,176,-97,4.00,
22,3,24,73,2,81,191,89,192,149,185,245,81,0,184,250,60,0,63,6,156,65,28,93,26,233,152,240,164,201,28,48,24,168,65,177,102,72,66,241,200,255,65,253,18,68,157,118,29,55,18,198,-97,4.00,
22,3,24,93,2,82,191,89,189,239,185,252,172,128,185,15,212,0,63,6,160,138,26,64,25,230,13,81,157,44,28,148,138,88,65,177,102,72,66,241,200,255,65,253,33,125,157,35,29,76,27,205,-97,4.25,
22,3,25,12,2,83,191,89,186,7,185,240,65,0,185,1,204,0,63,6,166,221,25,66,27,21,144,223,161,207,157,35,158,156,65,177,102,72,66,241,200,255,65,253,43,224,157,19,28,117,28,210,-97,4.00,
22,3,25,32,2,84,191,89,183,94,186,0,119,192,185,48,180,0,63,6,171,43,27,0,28,214,155,57,165,0,128,126,158,6,65,177,102,72,66,241,200,255,65,253,20,111,157,113,28,224,24,87,-98,4.25,
22,3,25,51,2,85,191,89,183,230,185,246,223,128,184,197,248,0,63,6,170,78,27,169,27,13,149,196,161,101,35,9,156,39,65,177,102,72,66,241,200,255,65,253,35,13,157,121,28,91,27,127,-98,4.00,
22,3,25,71,2,86,191,89,170,30,185,252,17,0,185,16,142,0,63,6,192,149,28,11,26,169,13,193,156,117,26,158,159,59,65,177,102,72,66,241,200,255,65,253,49,1,156,151,24,53,15,205,-97,4.00,
22,3,25,91,2,87,191,89,170,97,185,246,192,0,185,25,202,0,63,6,192,40,26,194,27,226,138,100,165,40,155,104,27,174,65,177,102,72,66,241,200,255,65,253,66,56,154,207,24,215,147,135,-97,4.00,
22,3,26,10,2,88,191,89,167,186,186,2,80,128,185,68,138,0,63,6,196,112,25,97,29,19,153,240,164,44,24,14,152,165,65,177,102,72,66,241,200,255,65,253,46,31,153,206,25,68,154,161,-97,3.50,
22,3,26,30,2,89,191,89,168,2,186,8,111,128,185,77,34,0,63,6,195,250,28,88,23,28,138,121,32,113,160,146,162,91,65,177,102,72,66,241,200,255,65,253,60,144,156,175,24,142,18,27,-99,4.00,
22,3,26,50,2,90,191,89,165,198,186,10,225,0,185,96,248,0,63,6,199,150,28,69,31,108,157,215,28,201,23,206,160,244,65,177,102,72,66,241,200,255,65,253,75,202,156,228,23,1,24,21,-97,3.75,
22,3,26,69,2,91,191,89,167,167,186,1,133,128,185,76,188,0,63,6,196,144,28,91,25,234,16,25,161,118,28,217,158,19,65,177,102,72,66,241,200,255,65,253,83,171,154,168,21,211,21,91,-97,4.00,
22,3,26,89,2,92,191,89,167,208,186,0,98,64,185,94,28,0,63,6,196,74,28,118,27,93,152,1,163,152,156,46,28,7,65,177,102,72,66,241,200,255,65,253,102,91,154,176,23,233,28,23,-98,3.75,
22,3,27,8,2,93,191,89,166,226,186,0,205,128,185,74,86,0,63,6,197,205,25,159,29,176,152,233,34,168,162,25,164,6,65,177,102,72,66,241,200,255,65,253,80,90,152,214,23,220,22,76,-97,3.50,
22,3,27,28,2,94,191,89,164,200,186,1,177,0,185,58,222,0,63,6,201,48,27,74,28,213,149,18,37,155,32,176,6,176,65,177,102,72,66,241,200,255,65,253,102,221,150,112,22,116,28,236,-98,4.25,
22,3,27,48,2,95,191,89,161,236,186,0,153,192,185,116,2,0,63,6,205,205,28,157,24,97,20,3,24,158,164,113,159,41,65,177,102,72,66,241,200,255,65,253,130,51,153,46,21,181,30,166,-97,3.75,
22,3,27,67,2,96,191,89,152,68,186,5,91,0,185,142,193,0,63,6,221,98,28,209,29,201,157,40,153,97,33,230,19,28,65,177,102,72,66,241,200,255,65,253,158,30,154,17,138,234,32,193,-97,4.00,
22,3,27,87,2,97,191,89,149,205,186,5,183,128,185,156,224,0,63,6,225,92,26,246,31,236,158,27,38,48,155,31,153,86,65,177,102,72,66,241,200,255,65,253,144,34,151,56,14,237,30,241,-98,4.00,
22,3,28,7,2,98,191,89,157,186,186,7,133,192,185,170,93,0,63,6,212,146,26,243,30,84,157,56,37,17,163,206,153,168,65,177,102,72,66,241,200,255,65,253,171,68,13,98,21,237,32,55,-96,4.00,
22,3,28,26,2,99,191,89,155,143,186,11,30,192,185,175,246,0,63,6,216,19,28,189,25,82,12,89,34,185,26,127,152,167,65,177,102,72,66,241,200,255,65,253,187,3,17,173,17,65,32,25,-97,4.25,
22,3,28,46,2,100,191,89,146,182,186,10,161,64,185,161,232,0,63,6,230,88,29,44,30,77,156,124,39,145,35,114,161,92,65,177,102,72,66,241,200,255,65,253,208,60,149,41,146,241,28,44,-98,4.50,
22,3,28,66,2,101,191,89,138,217,186,9,246,128,185,170,231,0,63,6,243,7,28,95,28,194,152,136,37,61,17,240,158,182,65,177,102,72,66,241,200,255,65,253,222,207,130,77,153,37,17,92,-97,4.50,
22,3,28,85,2,102,191,89,137,177,186,11,8,0,185,183,113,0,63,6,244,224,28,29,28,88,154,37,25,99,24,206,157,25,65,177,102,72,66,241,200,255,65,253,202,87,13,187,153,42,152,53,-98,4.75,
22,3,29,5,2,103,191,89,132,107,186,13,144,64,185,172,246,0,63,6,253,100,28,9,30,42,157,107,36,114,16,247,157,17,65,177,102,72,66,241,200,255,65,253,215,60,8,52,153,172,156,1,-98,4.50,
22,3,29,25,2,104,191,89,136,137,186,11,176,128,185,168,169,0,63,6,246,191,28,42,30,95,157,29,36,117,33,38,141,224,65,177,102,72,66,241,200,255,65,253,231,142,8,11,153,134,156,86,-97,4.25,
22,3,29,44,2,105,191,89,146,213,186,10,45,192,185,183,155,0,63,6,230,40,27,82,30,17,155,53,35,88,34,196,157,230,65,177,102,72,66,241,200,255,65,253,249,5,15,126,150,207,150,30,-98,4.25,
22,3,29,64,2,106,191,89,149,195,186,8,52,0,185,177,231,0,63,6,225,113,28,17,28,153,151,250,33,239,27,37,159,68,65,177,102,72,66,241,200,255,65,254,4,185,20,55,149,228,150,151,-98,4.00,
22,3,29,83,2,107,191,89,148,253,186,9,150,192,185,183,116,0,63,6,226,172,26,33,31,144,157,245,33,9,152,61,28,157,65,177,102,72,66,241,200,255,65,253,237,66,23,89,150,103,156,46,-98,4.00,
22,3,30,3,2,108,191,89,145,61,186,13,28,128,185,187,99,0,63,6,232,182,27,112,25,158,148,41,25,150,28,193,26,183,65,177,102,72,66,241,200,255,65,253,251,12,22,126,149,103,152,10,-98,4.00,
22,3,30,23,2,109,191,89,139,117,186,13,0,64,185,190,9,0,63,6,242,10,27,20,29,148,155,133,27,222,26,239,156,115,65,177,102,72,66,241,200,255,65,254,12,229,15,52,150,230,149,104,-97,3.25,
22,3,30,42,2,110,191,89,148,52,186,6,48,128,185,182,12,0,63,6,227,243,26,209,24,217,20,213,142,214,33,82,153,203,65,177,102,71,66,241,200,255,65,254,30,110,21,197,144,162,144,8,-98,3.00,
22,3,30,62,2,111,191,89,144,254,186,13,247,128,185,215,124,0,63,6,233,28,26,204,30,77,156,116,161,149,128,161,158,56,65,177,102,71,66,241,200,255,65,254,7,235,23,97,138,241,154,98,-98,4.00,
22,3,30,81,2,112,191,89,140,68,186,9,120,192,185,184,251,0,63,6,240,188,28,0,25,27,6,20,34,16,160,76,164,86,65,177,102,71,66,241,200,255,65,254,20,124,24,72,149,43,151,253,-98,3.75,
22,3,31,1,2,113,191,89,142,198,186,11,112,0,185,198,56,0,63,6,236,180,24,217,31,203,156,65,157,153,29,94,31,196,65,177,102,71,66,241,200,255,65,254,43,193,26,18,145,9,146,11,-99,4.25,
22,3,31,21,2,114,191,89,143,49,186,11,244,128,185,202,116,0,63,6,236,3,24,188,29,182,154,1,161,198,27,86,22,197,65,177,102,71,66,241,200,255,65,254,55,173,24,119,9,116,136,199,-98,4.25,
22,3,31,40,2,115,191,89,139,105,186,15,5,192,185,180,46,0,63,6,242,29,28,51,28,145,152,26,17,102,157,73,160,54,65,177,102,71,66,241,200,255,65,254,70,92,22,17,142,105,143,149,-98,4.25,
22,3,31,60,2,116,191,89,137,120,186,20,232,64,185,179,237,0,63,6,245,64,28,177,24,229,138,245,33,124,20,143,145,90,65,177,102,71,66,241,200,255,65,254,51,244,22,165,141,138,152,199,-99,4.25,
22,3,31,79,2,117,191,89,131,102,186,18,73,128,185,177,117,0,63,6,255,5,26,127,30,50,156,25,26,116,153,113,154,221,65,177,102,71,66,241,200,255,65,254,58,18,24,98,147,122,157,181,-98,4.00,
22,3,31,99,2,118,191,89,130,87,186,13,18,64,185,168,28,0,63,7,0,188,27,132,24,186,128,1,159,212,156,49,29,137,65,177,102,71,66,241,200,255,65,254,72,247,25,53,148,188,156,198,-99,4.50,
22,3,32,19,2,119,191,89,127,140,186,18,120,192,185,150,92,0,63,7,5,57,28,161,28,249,156,131,36,131,155,83,156,154,65,177,102,71,66,241,200,255,65,254,71,1,20,25,150,88,156,237,-99,4.50,
22,3,32,38,2,120,191,89,121,229,186,16,169,192,185,165,26,0,63,7,14,84,27,254,30,179,157,102,35,216,156,98,161,245,65,177,102,71,66,241,200,255,65,254,82,162,24,206,152,11,150,9,-99,4.50,
22,3,32,58,2,121,191,89,123,140,186,11,69,128,185,165,12,0,63,7,11,174,27,201,29,251,154,136,164,203,164,215,156,121,65,177,102,71,66,241,200,255,65,254,50,107,25,71,152,194,156,219,-99,3.50,
22,3,32,77,2,122,191,89,119,180,186,19,200,192,185,181,180,0,63,7,17,222,29,45,23,194,144,15,154,69,29,145,159,122,65,177,102,71,66,241,200,255,65,254,51,67,24,234,151,114,157,235,-98,3.75,
22,3,32,97,2,123,191,89,121,237,186,16,6,128,185,159,200,0,63,7,14,76,29,166,26,235,152,100,31,234,153,123,157,195,65,177,102,71,66,241,200,255,65,254,53,120,23,182,145,116,155,182,-97,3.75,
22,3,33,17,2,124,191,89,117,209,186,12,223,0,185,159,92,0,63,7,20,231,26,165,29,32,150,38,29,179,28,206,31,168,65,177,102,71,66,241,200,255,65,254,64,109,24,175,145,208,148,0,-97,4.00,
22,3,33,36,2,125,191,89,119,91,186,12,164,0,185,149,183,0,63,7,18,110,26,221,29,37,141,118,160,203,32,196,22,56,65,177,102,71,66,241,200,255,65,254,32,22,24,157,144,30,156,131,-97,3.25,
22,3,33,56,2,126,191,89,107,133,186,18,63,192,185,156,35,0,63,7,37,121,28,173,31,5,157,236,25,117,153,75,155,58,65,177,102,71,66,241,200,255,65,254,35,226,22,185,148,110,157,83,-98,3.50,
22,3,33,75,2,127,191,89,108,169,186,16,243,64,185,147,11,0,63,7,35,163,28,140,27,117,152,227,40,7,32,177,163,48,65,177,102,71,66,241,200,255,65,254,46,28,23,213,143,241,156,160,-98,3.50,
22,3,33,95,2,128,191,89,114,128,186,13,93,128,185,150,46,0,63,7,26,61,27,24,31,91,157,176,38,20,35,216,153,42,65,177,102,71,66,241,200,255,65,254,60,238,27,154,12,79,156,126,-98,3.50,
22,3,34,15,2,129,191,89,104,237,186,10,251,128,185,164,48,0,63,7,41,164,25,223,24,70,22,21,156,61,32,172,9,232,65,177,102,71,66,241,200,255,65,254,66,11,26,2,8,170,154,162,-98,3.50,
22,3,34,34,2,130,191,89,104,124,186,10,1,128,185,157,233,0,63,7,42,95,27,48,30,184,157,130,31,183,27,189,27,176,65,177,102,71,66,241,200,255,65,254,38,192,25,89,138,19,158,73,-98,3.75,
22,3,34,54,2,131,191,89,99,106,186,11,175,192,185,152,212,0,63,7,50,135,28,2,27,85,148,209,37,172,28,99,159,58,65,177,102,71,66,241,200,255,65,254,48,188,22,161,20,172,149,41,-98,3.50,
22,3,34,73,2,132,191,89,97,153,186,4,50,64,185,153,233,0,63,7,53,108,22,185,31,178,152,214,160,38,163,169,163,136,65,177,102,71,66,241,200,255,65,254,48,82,28,10,133,137,148,126,-99,4.00,
22,3,34,93,2,133,191,89,89,205,186,9,96,64,185,182,23,0,63,7,65,246,25,41,30,119,154,119,165,241,33,38,30,49,65,177,102,71,66,241,200,255,65,254,52,149,26,212,137,159,151,247,-98,3.75,
22,3,35,13,2,134,191,89,91,1,186,9,105,128,185,131,93,0,63,7,64,11,28,34,28,182,154,204,34,252,37,218,26,142,65,177,102,71,66,241,200,255,65,254,52,252,26,227,5,239,153,7,-98,3.50,
22,3,35,32,2,135,191,89,88,84,186,16,35,64,185,151,78,0,63,7,68,86,27,224,24,225,17,245,38,254,164,174,153,106,65,177,102,71,66,241,200,255,65,254,19,250,28,20,139,127,158,49,-99,3.50,
22,3,35,52,2,136,191,89,81,103,186,14,144,64,185,165,125,0,63,7,79,115,24,223,30,126,152,64,153,135,22,58,156,217,65,177,102,71,66,241,200,255,65,254,10,169,26,136,143,206,159,108,-98,3.50,
22,3,35,72,2,137,191,89,80,98,186,9,137,0,185,154,159,0,63,7,81,26,27,7,28,53,149,9,28,33,158,110,160,254,65,177,102,71,66,241,200,255,65,254,16,139,26,133,13,171,158,85,-98,3.50,
22,3,35,91,2,138,191,89,74,22,186,11,218,64,185,142,26,0,63,7,91,54,28,59,24,216,149,67,36,117,34,166,153,51,65,177,102,71,66,241,200,255,65,254,15,91,25,208,18,211,156,220,-98,3.50,
22,3,36,11,2,139,191,89,72,205,186,17,122,0,185,150,68,0,63,7,93,66,27,222,28,44,152,149,39,172,163,128,156,154,65,177,102,71,66,241,200,255,65,253,238,199,26,36,12,222,160,40,-97,3.50,
22,3,36,30,2,140,191,89,73,11,186,7,32,0,185,159,219,0,63,7,92,230,23,98,31,169,155,148,164,239,148,75,3,48,65,177,102,71,66,241,200,255,65,253,237,205,26,128,22,1,158,119,-98,3.25,
22,3,36,50,2,141,191,89,61,157,186,13,44,0,185,149,62,0,63,7,111,54,25,167,30,12,156,139,30,32,164,110,163,79,65,177,102,71,66,241,200,255,65,253,238,230,24,207,147,94,157,95,-98,3.25,
22,3,36,70,2,142,191,89,64,176,186,11,194,64,185,133,55,0,63,7,106,74,27,255,27,92,148,254,36,244,24,88,161,107,65,177,102,71,66,241,200,255,65,253,240,42,28,6,140,151,159,93,-98,3.75,
22,3,36,89,2,143,191,89,66,113,186,11,29,64,185,148,74,0,63,7,103,122,22,163,28,229,143,230,32,181,161,132,164,155,65,177,102,71,66,241,200,255,65,253,252,202,29,130,19,129,159,179,-98,3.50,
22,3,37,9,2,144,191,89,67,36,186,8,149,192,185,140,90,0,63,7,102,88,28,64,24,191,10,40,29,126,160,215,157,217,65,177,102,71,66,241,200,255,65,253,228,83,28,210,20,216,161,109,-98,3.50,
22,3,37,28,2,145,191,89,55,5,186,13,81,0,185,177,148,0,63,7,121,203,24,216,31,62,155,171,28,171,165,119,160,111,65,177,102,71,66,241,200,255,65,253,235,34,28,33,10,57,159,23,-99,3.75,
22,3,37,48,2,146,191,89,60,48,186,6,87,0,185,162,151,0,63,7,113,127,25,181,26,156,23,1,30,207,33,241,161,203,65,177,102,71,66,241,200,255,65,253,245,190,28,189,24,113,152,188,-98,3.75,
22,3,37,67,2,147,191,89,53,239,186,10,232,64,185,160,238,0,63,7,123,136,25,132,30,228,156,3,32,59,160,183,161,96,65,177,102,71,66,241,200,255,65,254,1,187,29,20,16,159,139,131,-98,3.75,
22,3,37,87,2,148,191,89,52,68,186,9,63,64,185,155,63,0,63,7,126,56,24,110,27,248,17,145,36,70,30,25,160,31,65,177,102,71,66,241,200,255,65,254,15,48,28,248,21,220,28,245,-98,4.25,
22,3,38,7,2,149,191,89,51,73,186,6,48,192,185,162,178,0,63,7,127,203,21,233,30,194,152,90,25,233,152,99,157,185,65,177,102,71,66,241,200,255,65,253,253,246,28,235,20,229,25,149,-99,3.25,
22,3,38,27,2,150,191,89,48,196,186,5,255,192,185,171,184,0,63,7,131,212,26,93,26,132,21,97,34,21,36,58,16,10,65,177,102,71,66,241,200,255,65,254,11,84,30,24,21,205,28,241,-99,3.75,
22,3,38,46,2,151,191,89,35,203,186,6,16,192,185,167,19,0,63,7,152,153,24,173,30,104,154,189,29,19,156,162,28,94,65,177,102,71,66,241,200,255,65,254,33,74,29,71,141,19,28,25,-98,3.00,
22,3,38,66,2,152,191,89,33,199,186,5,253,192,185,187,68,0,63,7,155,210,25,135,26,150,17,231,157,238,36,77,150,230,65,177,102,71,66,241,200,255,65,254,48,200,29,220,16,134,25,53,-99,3.25,
22,3,38,85,2,153,191,89,34,84,186,0,125,0,185,163,31,0,63,7,154,243,26,211,28,219,152,21,20,25,10,168,155,156,65,177,102,71,66,241,200,255,65,254,31,7,30,36,17,34,13,47,-98,3.50,
22,3,39,5,2,154,191,89,25,176,186,6,132,128,185,181,35,0,63,7,168,201,28,189,28,145,154,65,36,58,31,43,160,156,65,177,102,71,66,241,200,255,65,254,46,173,31,30,144,74,153,53,-99,0.25,
22,3,39,25,2,155,191,89,30,106,185,246,123,0,185,172,195,0,63,7,161,56,25,254,30,79,156,59,157,100,35,106,29,135,65,177,102,71,66,241,200,255,65,254,53,4,31,236,17,9,154,230,-101,-2.25,
22,3,39,44,2,156,191,89,20,32,186,3,255,192,185,179,117,0,63,7,177,174,25,25,26,68,13,55,26,135,29,139,27,32,65,177,102,71,66,241,200,255,65,254,78,191,30,164,13,150,14,5,-99,-4.75,
22,3,39,64,2,157,191,89,14,29,186,6,4,128,185,153,213,0,63,7,187,73,25,207,29,168,148,167,35,254,148,31,163,233,65,177,102,71,66,241,200,255,65,254,80,220,31,106,146,7,144,218,-101,0.50,
22,3,39,83,2,158,191,89,11,97,186,4,71,0,185,164,121,0,63,7,191,171,28,33,26,241,152,61,160,160,160,62,161,44,65,177,102,71,66,241,200,255,65,254,65,113,31,122,7,34,152,108,-98,-1.25,
22,3,40,3,2,159,191,89,8,137,185,254,203,128,185,160,183,0,63,7,196,53,24,193,26,175,20,249,162,39,27,99,156,54,65,177,102,71,66,241,200,255,65,254,89,204,32,19,2,110,140,183,-99,-2.50,
22,3,40,23,2,160,191,89,2,163,185,255,50,128,185,164,104,0,63,7,205,163,138,130,32,47,156,10,18,136,34,83,25,98,65,177,102,71,66,241,200,255,65,254,98,43,31,184,132,9,17,216,-98,-3.50,
22,3,40,42,2,161,191,89,4,236,185,244,1,0,185,159,8,0,63,7,201,255,23,49,29,227,151,116,165,58,164,83,154,175,65,177,102,71,66,241,200,255,65,254,115,25,29,135,20,83,25,5,-98,-1.75,
22,3,40,62,2,162,191,89,4,123,185,243,146,0,185,153,37,0,63,7,202,180,27,189,29,65,153,91,163,43,164,176,158,234,65,177,102,71,66,241,200,255,65,254,102,34,29,91,20,249,15,212,-98,-1.75,
22,3,40,82,2,163,191,88,254,74,185,250,223,0,185,154,103,0,63,7,212,149,29,115,25,195,141,45,165,13,33,239,27,69,65,177,102,71,66,241,200,255,65,254,117,187,29,77,20,4,10,69,-99,-1.00,
22,3,41,1,2,164,191,88,249,21,186,1,114,128,185,135,129,0,63,7,220,235,29,78,26,85,153,180,163,128,162,28,155,195,65,177,102,71,66,241,200,255,65,254,130,160,28,99,18,185,25,170,-101,-0.75,
22,3,41,21,2,165,191,88,245,95,185,255,117,0,185,102,24,0,63,7,226,211,30,144,16,226,8,168,155,222,152,77,155,217,65,177,102,71,66,241,200,255,65,254,152,161,26,134,143,197,29,206,-99,-4.25,
22,3,41,41,2,166,191,88,239,43,186,6,164,64,185,84,58,0,63,7,236,190,30,245,25,204,153,170,39,147,164,197,166,42,65,177,102,71,66,241,200,255,65,254,169,133,24,75,142,28,30,9,-98,-3.75,
22,3,41,60,2,167,191,88,238,218,186,2,47,64,185,134,147,0,63,7,237,63,31,136,22,49,137,219,160,164,164,52,160,186,65,177,102,71,66,241,200,255,65,254,158,214,25,44,14,209,28,72,-99,-4.00,
22,3,41,80,2,168,191,88,239,127,185,248,121,128,185,110,224,0,63,7,236,56,30,152,29,4,158,209,166,240,24,204,156,248,65,177,102,70,66,241,200,255,65,254,163,246,27,201,19,126,22,143,-97,-4.75,
22,3,41,99,2,169,191,88,236,252,186,3,58,0,185,50,224,0,63,7,240,59,31,198,9,14,150,216,39,169,154,88,162,4,65,177,102,70,66,241,200,255,65,254,175,184,27,164,23,120,22,240,-98,-2.75,
22,3,42,19,2,170,191,88,235,127,186,6,58,128,185,47,120,0,63,7,242,149,31,23,28,86,157,24,41,105,33,112,162,189,65,177,102,70,66,241,200,255,65,254,195,28,23,105,24,211,28,63,-96,-5.50,
22,3,42,39,2,171,191,88,229,253,186,5,104,64,185,83,166,0,63,7,251,97,31,245,139,102,13,71,30,30,33,45,17,198,65,177,102,70,66,241,200,255,65,254,215,229,22,106,17,76,28,243,-95,-5.75,
22,3,42,58,2,172,191,88,227,188,185,251,152,0,185,120,136,0,63,7,254,250,31,226,22,178,152,49,164,126,33,139,29,182,65,177,102,70,66,241,200,255,65,254,203,52,23,25,17,255,26,66,-96,-4.75,
22,3,42,78,2,173,191,88,222,114,185,255,219,128,185,110,110,0,63,8,7,102,31,2,28,88,159,178,36,212,31,220,159,20,65,177,102,70,66,241,200,255,65,254,216,123,27,7,14,33,21,140,-95,-5.50,
22,3,42,97,2,174,191,88,224,156,185,252,146,0,185,102,28,0,63,8,3,245,29,98,29,94,156,158,38,27,36,241,158,22,65,177,102,70,66,241,200,255,65,254,222,211,27,202,21,180,12,11,-95,-5.50,
22,3,43,17,2,175,191,88,219,80,186,0,48,0,185,145,37,0,63,8,12,103,29,92,25,193,150,191,37,227,35,192,159,43,65,177,102,70,66,241,200,255,65,254,226,239,27,215,16,92,151,225,-95,-5.75,
22,3,43,37,2,176,191,88,219,64,185,255,192,128,185,101,84,0,63,8,12,127,30,209,24,155,155,32,36,7,146,118,161,240,65,177,102,70,66,241,200,255,65,254,215,54,27,10,16,8,155,146,-95,-5.50,
22,3,43,56,2,177,191,88,212,212,186,3,239,0,185,129,86,0,63,8,22,187,29,108,25,58,150,63,39,134,35,103,159,179,65,177,102,70,66,241,200,255,65,254,218,33,28,71,19,241,157,202,-94,-5.75,
22,3,43,76,2,178,191,88,209,136,185,250,119,128,185,120,24,0,63,8,27,252,29,83,23,5,11,23,36,125,153,2,164,20,65,177,102,70,66,241,200,255,65,254,219,32,29,38,14,54,156,123,-95,-5.50,
22,3,43,96,2,179,191,88,207,184,186,1,86,192,185,133,95,0,63,8,30,223,28,239,29,45,156,236,36,210,31,228,157,231,65,177,102,70,66,241,200,255,65,254,225,131,29,211,19,51,157,2,-94,-5.50,
22,3,44,15,2,180,191,88,205,145,185,243,41,0,185,133,110,0,63,8,34,81,29,142,20,78,19,61,33,232,37,15,162,92,65,177,102,70,66,241,200,255,65,254,221,57,29,74,19,218,156,248,-95,-6.00,
22,3,44,35,2,181,191,88,155,164,127,51,0,166,58,186,176,58,118,167,189,189,233,93,16,26,159,30,36,238,166,117,164,130,65,177,102,70,66,241,200,255,65,254,200,182,29,80,21,149,159,56,-94,-6.75,
22,3,44,74,2,183,191,88,198,21,185,239,62,128,185,104,236,0,63,8,46,57,31,94,27,76,159,42,36,106,32,86,29,235,65,177,102,70,66,241,200,255,65,254,201,120,30,112,15,153,158,32,-95,-6.00,
22,3,44,94,2,184,191,88,190,35,185,249,217,0,185,53,8,0,63,8,58,221,30,164,17,115,12,113,42,52,157,131,163,117,65,177,102,70,66,241,200,255,65,254,200,138,30,111,147,38,159,120,-94,-6.00,
22,3,45,13,2,185,191,88,190,93,185,243,119,128,185,92,238,0,63,8,58,130,31,175,25,249,156,143,37,143,154,185,161,75,65,177,102,70,66,241,200,255,65,254,206,13,30,128,11,15,159,75,-94,-5.75,
22,3,45,33,2,186,191,88,188,230,185,242,148,128,185,106,236,0,63,8,60,216,31,50,28,222,159,146,34,43,8,197,153,196,65,177,102,70,66,241,200,255,65,254,186,169,30,220,15,254,160,217,-94,-6.50,
22,3,45,52,2,187,191,88,181,206,185,239,228,128,185,84,16,0,63,8,72,31,29,59,29,208,158,65,33,224,36,182,159,253,65,177,102,70,66,241,200,255,65,254,193,79,30,64,9,45,160,108,-94,-6.25,
22,3,45,72,2,188,191,88,177,151,185,251,252,0,185,110,92,0,63,8,78,208,28,133,28,69,153,219,38,106,156,184,158,32,65,177,102,70,66,241,200,255,65,254,196,159,29,190,18,173,157,240,-94,-5.75,
22,3,45,92,2,189,191,88,179,144,185,231,218,128,185,76,210,0,63,8,75,178,28,240,28,14,156,184,35,12,164,112,160,252,65,177,102,70,66,241,200,255,65,254,194,135,30,49,20,33,158,209,-94,-6.00,
22,3,46,11,2,190,191,88,176,173,185,236,130,128,185,101,56,0,63,8,80,70,31,42,18,251,147,189,23,4,130,95,17,14,65,177,102,70,66,241,200,255,65,254,170,90,29,158,22,108,160,147,-94,-6.25,
22,3,46,31,2,191,191,88,175,138,185,228,52,128,185,127,34,0,63,8,82,21,30,120,25,1,152,154,164,66,156,59,160,90,65,177,102,70,66,241,200,255,65,254,183,140,28,146,23,62,158,63,-94,-6.25,
22,3,46,50,2,192,191,88,173,32,185,223,53,0,185,129,140,0,63,8,85,236,28,76,28,45,149,56,144,186,144,116,158,55,65,177,102,70,66,241,200,255,65,254,174,37,28,206,20,206,159,190,-94,-6.00,
22,3,46,70,2,193,191,88,175,175,185,224,215,0,185,89,112,0,63,8,81,221,27,87,24,208,25,167,161,67,34,116,19,158,65,177,102,70,66,241,200,255,65,254,160,184,29,38,24,59,159,155,-97,-6.00,
22,3,46,90,2,194,191,88,167,52,185,239,197,0,185,133,36,0,63,8,95,84,29,136,28,236,157,105,19,66,163,84,157,48,65,177,102,70,66,241,200,255,65,254,169,201,28,117,20,131,157,145,-97,-6.25,
22,3,47,9,2,195,191,88,168,112,185,246,12,128,185,110,174,0,63,8,93,98,28,216,28,228,149,144,36,164,32,177,152,162,65,177,102,70,66,241,200,255,65,254,142,184,29,33,19,94,160,113,-98,-6.50,
22,3,47,29,2,196,191,88,167,132,185,246,247,128,185,125,202,0,63,8,94,211,25,87,32,11,156,146,35,5,39,162,26,53,65,177,102,70,66,241,200,255,65,254,154,148,28,154,24,131,153,244,-97,-6.50,
22,3,47,48,2,197,191,88,166,110,185,241,44,0,185,120,34,0,63,8,96,142,28,28,29,195,153,162,159,41,165,89,164,36,65,177,102,70,66,241,200,255,65,254,158,214,28,134,23,193,145,38,-95,-5.75,
22,3,47,68,2,198,191,88,167,209,185,240,159,128,185,92,180,0,63,8,94,94,28,112,30,207,157,204,152,54,36,182,31,135,65,177,102,70,66,241,200,255,65,254,162,225,28,168,24,35,22,38,-94,-6.00,
22,3,47,88,2,199,191,88,164,28,186,3,117,128,185,119,138,0,63,8,100,62,28,65,28,34,149,242,39,224,33,92,22,87,65,177,102,70,66,241,200,255,65,254,173,74,28,217,25,153,20,147,-94,-7.00,
22,3,48,7,2,200,191,88,163,94,186,4,95,64,185,141,130,0,63,8,101,105,23,122,32,59,156,62,28,164,158,146,160,2,65,177,102,70,66,241,200,255,65,254,169,102,29,219,25,127,130,8,-94,-6.75,
22,3,48,46,2,202,191,88,149,64,186,18,77,0,185,93,84,0,63,8,123,213,29,63,30,9,157,194,40,75,35,112,162,89,65,177,102,70,66,241,200,255,65,254,195,114,26,209,22,23,16,70,-94,-7.25,
22,3,48,66,2,203,191,88,145,150,186,19,38,192,185,120,4,0,63,8,129,166,26,99,29,169,150,200,39,250,156,234,161,34,65,177,102,70,66,241,200,255,65,254,203,11,27,129,12,184,141,252,-94,-7.25,
22,3,48,86,2,204,191,88,147,10,186,12,175,64,185,137,32,0,63,8,127,85,22,149,30,4,21,190,23,230,32,251,26,14,65,177,102,70,66,241,200,255,65,254,187,220,27,216,19,252,153,67,-94,-6.75,
22,3,49,5,2,205,191,88,144,33,186,16,244,64,185,77,118,0,63,8,131,245,27,80,24,210,2,252,35,145,150,45,156,82,65,177,102,70,66,241,200,255,65,254,195,77,26,147,20,186,151,152,-95,-6.75,
22,3,49,25,2,206,191,88,139,150,186,20,255,192,185,51,114,0,63,8,139,44,29,88,23,48,14,112,40,137,28,154,146,138,65,177,102,70,66,241,200,255,65,254,202,201,26,11,16,31,152,7,-96,-6.75,
22,3,49,44,2,207,191,88,136,107,186,25,2,128,185,102,240,0,63,8,144,45,24,92,29,99,17,254,32,202,37,119,158,185,65,177,102,70,66,241,200,255,65,254,213,213,26,230,7,20,149,66,-97,-7.75,
22,3,49,64,2,208,191,88,132,27,186,25,6,128,185,106,106,0,63,8,151,5,26,142,28,30,150,77,153,124,163,169,157,38,65,177,102,70,66,241,200,255,65,254,230,30,24,35,138,100,21,214,-95,-6.50,
22,3,50,23,2,211,191,88,130,0,186,32,0,192,185,89,246,0,63,8,154,91,25,36,31,236,157,144,35,68,161,204,162,87,65,177,102,70,66,241,200,255,65,254,234,145,26,57,142,134,150,72,-95,-7.00,
22,3,50,42,2,212,191,88,126,118,186,34,96,192,185,81,82,0,63,8,159,248,27,72,27,120,148,208,33,188,154,114,161,48,65,177,102,70,66,241,200,255,65,254,244,171,24,207,144,236,25,110,-95,-7.00,
22,3,50,62,2,213,191,88,123,244,186,41,209,192,185,87,234,0,63,8,163,237,28,185,30,79,157,191,38,24,31,127,153,122,65,177,102,70,66,241,200,255,65,254,230,48,24,139,142,178,17,80,-96,-7.25,
22,3,50,82,2,214,191,88,119,89,186,36,87,192,185,22,200,0,63,8,171,61,26,115,25,199,19,122,41,218,154,182,159,116,65,177,102,70,66,241,200,255,65,254,244,82,23,26,144,73,24,73,-99,-6.00,
22,3,51,1,2,215,191,88,115,247,186,37,113,0,185,97,90,0,63,8,176,155,22,114,32,59,156,206,160,162,32,103,30,135,65,177,102,70,66,241,200,255,65,254,251,95,22,46,150,80,16,132,-99,-7.75,
22,3,51,21,2,216,191,88,106,202,186,41,153,0,185,36,208,0,63,8,191,32,27,55,24,160,146,226,33,219,35,29,160,172,65,177,102,70,66,241,200,255,65,255,1,59,138,143,148,1,151,81,-96,-9.00,
22,3,51,41,2,217,191,88,105,246,186,42,33,0,185,23,116,0,63,8,192,106,25,10,30,24,154,79,38,175,152,6,165,51,65,177,102,70,66,241,200,255,65,255,4,190,20,80,147,63,152,80,-97,-9.25,
22,3,51,60,2,218,191,88,104,105,186,43,12,64,185,116,108,0,63,8,194,226,24,51,29,23,150,162,1,254,35,30,153,149,65,177,102,70,66,241,200,255,65,254,245,94,20,172,147,114,156,86,-97,-9.50,
22,3,51,80,2,219,191,88,103,192,186,40,212,128,185,85,10,0,63,8,195,240,26,168,31,171,160,5,167,2,32,154,150,132,65,177,102,70,66,241,200,255,65,254,249,194,3,22,145,151,153,110,-94,-9.50,
22,3,51,99,2,220,191,88,105,240,186,40,250,192,185,67,158,0,63,8,192,121,26,66,26,122,11,227,34,238,162,131,154,252,65,177,102,70,66,241,200,255,65,254,246,111,20,105,151,75,157,42,-94,-10.50,
22,3,52,19,2,221,191,88,104,119,186,38,163,0,185,70,204,0,63,8,194,203,21,208,29,233,149,98,30,241,20,223,164,112,65,177,102,70,66,241,200,255,65,255,0,123,23,71,152,103,153,69,-95,-7.75,
22,3,52,39,2,222,191,88,98,92,186,40,200,0,185,128,88,0,63,8,204,114,25,2,29,4,150,37,168,135,165,146,158,55,65,177,102,70,66,241,200,255,65,255,8,4,17,160,151,27,131,148,-98,-4.75,
22,3,52,58,2,223,191,88,99,58,186,41,214,128,185,76,110,0,63,8,203,18,26,218,26,12,147,222,165,238,148,51,152,39,65,177,102,70,66,241,200,255,65,254,236,22,8,162,150,238,153,204,-98,-5.50,
22,3,52,78,2,224,191,88,94,21,186,50,55,0,185,108,64,0,63,8,211,55,24,248,30,77,153,42,157,63,30,34,156,212,65,177,102,70,66,241,200,255,65,254,247,89,20,26,144,62,6,2,-94,-10.00,
22,3,52,97,2,225,191,88,96,75,186,46,18,128,185,83,112,0,63,8,207,182,24,133,30,138,151,106,168,186,167,222,157,228,65,177,102,70,66,241,200,255,65,255,0,158,17,226,150,176,21,186,-96,-6.75,
22,3,53,17,2,226,191,88,93,99,186,45,23,192,185,80,116,0,63,8,212,81,27,13,29,215,155,78,168,188,162,184,159,32,65,177,102,70,66,241,200,255,65,255,0,162,139,112,146,242,9,18,-97,-5.00,
22,3,53,37,2,227,191,88,92,114,186,50,68,192,185,52,164,0,63,8,213,206,28,137,25,225,134,144,163,76,156,72,154,161,65,177,102,70,66,241,200,255,65,254,234,7,145,135,139,183,152,233,-94,-10.25,
22,3,53,56,2,228,191,88,99,93,186,56,190,192,185,76,254,0,63,8,202,219,27,166,29,159,152,35,30,227,163,165,160,169,65,177,102,69,66,241,200,255,65,254,248,45,132,6,154,5,154,39,-93,-10.25,
22,3,53,76,2,229,191,88,99,21,186,58,154,192,185,87,80,0,63,8,203,79,28,169,26,36,22,23,164,77,156,165,154,161,65,177,102,69,66,241,200,255,65,254,249,132,128,17,155,76,156,193,-97,-7.50,
22,3,53,95,2,230,191,88,96,25,186,65,134,192,185,43,216,0,63,8,208,9,29,228,25,17,19,49,159,2,158,222,146,14,65,177,102,69,66,241,200,255,65,255,8,64,148,113,153,30,144,32,-95,-6.50,
22,3,54,15,2,231,191,88,94,150,186,75,188,128,185,78,124,0,63,8,210,106,30,146,22,208,17,96,33,96,166,212,161,227,65,177,102,69,66,241,200,255,65,255,22,247,146,173,155,27,20,72,-96,-4.50,
22,3,54,34,2,232,191,88,95,154,186,72,245,128,185,66,222,0,63,8,208,202,28,159,31,76,157,125,30,231,33,164,12,28,65,177,102,69,66,241,200,255,65,255,2,175,146,224,155,246,149,230,-96,-2.50,
22,3,54,54,2,233,191,88,91,227,186,76,117,192,185,65,20,0,63,8,214,171,28,235,24,141,24,46,31,118,158,68,161,114,65,177,102,69,66,241,200,255,65,255,3,227,149,79,157,58,151,252,-94,-4.50,
22,3,54,74,2,234,191,88,91,195,186,73,200,0,185,29,234,0,63,8,214,224,29,171,29,217,156,63,34,178,19,67,158,94,65,177,102,69,66,241,200,255,65,255,0,181,150,178,158,61,158,12,-93,-5.75,
22,3,54,93,2,235,191,88,86,172,186,76,1,128,185,48,8,0,63,8,222,233,28,94,25,151,20,59,37,1,31,36,149,82,65,177,102,69,66,241,200,255,65,254,246,108,149,207,158,145,159,43,-94,-5.25,
22,3,55,13,2,236,191,88,67,248,186,71,138,64,185,38,14,0,63,8,252,123,28,53,28,26,149,197,33,199,36,35,152,173,65,177,102,69,66,241,200,255,65,254,250,12,151,36,156,151,152,195,-96,-2.75,
22,3,55,33,2,237,191,88,65,23,186,76,23,0,185,99,102,0,63,9,1,3,26,188,28,237,148,199,35,235,25,201,16,4,65,177,102,69,66,241,200,255,65,254,222,83,151,234,156,236,157,41,-95,-4.00,
22,3,55,52,2,238,191,88,74,30,186,71,134,192,185,73,226,0,63,8,242,194,25,137,30,229,156,216,40,124,37,27,158,213,65,177,102,69,66,241,200,255,65,254,219,63,144,67,156,60,156,34,-94,-5.75,
22,3,55,72,2,239,191,88,62,151,186,76,66,0,185,52,218,0,63,9,4,245,26,223,28,9,146,167,41,62,37,220,157,51,65,177,102,69,66,241,200,255,65,254,214,212,145,43,153,198,155,37,-96,-3.00,
22,3,55,91,2,240,191,88,60,42,186,77,243,64,185,78,24,0,63,9,8,202,26,60,29,44,152,91,40,101,34,65,157,147,65,177,102,69,66,241,200,255,65,254,219,19,6,72,152,144,7,235,-96,-1.50,
22,3,56,11,2,241,191,88,60,54,186,78,178,64,185,82,166,0,63,9,8,181,25,213,29,237,153,160,36,120,37,71,15,128,65,177,102,69,66,241,200,255,65,254,199,153,143,129,152,176,152,116,-96,-1.75,
22,3,56,31,2,242,191,88,61,210,186,78,127,128,185,68,144,0,63,9,6,42,24,159,27,69,144,110,39,89,32,6,158,199,65,177,102,69,66,241,200,255,65,254,203,124,1,130,154,57,24,123,-96,-3.50,
22,3,56,50,2,243,191,88,47,11,186,81,39,64,185,86,108,0,63,9,29,123,24,44,29,4,152,96,35,249,27,248,163,2,65,177,102,69,66,241,200,255,65,254,194,203,142,29,151,143,23,110,-97,-1.75,
22,3,56,70,2,244,191,88,65,243,186,77,227,128,185,74,120,0,63,8,255,169,25,194,25,64,17,157,34,71,36,65,160,51,65,177,102,69,66,241,200,255,65,254,188,169,20,93,154,118,140,1,-97,-1.00,
22,3,56,89,2,245,191,88,55,85,186,79,195,192,185,116,2,0,63,9,16,104,25,38,31,60,156,177,163,85,28,27,146,26,65,177,102,69,66,241,200,255,65,254,190,162,18,228,147,40,133,207,-93,-6.25,
22,3,57,9,2,246,191,88,55,64,186,76,64,128,185,102,210,0,63,9,16,139,24,56,28,213,146,231,165,194,161,45,158,248,65,177,102,69,66,241,200,255,65,254,162,142,16,142,150,192,154,229,-92,-7.50,
22,3,57,29,2,247,191,88,55,151,186,77,113,64,185,93,152,0,63,9,16,0,25,8,31,243,158,125,160,117,160,193,150,157,65,177,102,69,66,241,200,255,65,254,173,128,19,244,145,234,152,125,-93,-8.00,
22,3,57,48,2,248,191,88,54,107,186,74,215,64,185,114,2,0,63,9,17,216,26,23,25,47,14,119,162,237,28,48,26,29,65,177,102,69,66,241,200,255,65,254,182,9,17,103,152,17,2,18,-96,-8.50,
22,3,57,68,2,249,191,88,52,219,186,77,202,128,185,138,92,0,63,9,20,81,25,187,31,72,156,85,164,36,162,254,156,144,65,177,102,69,66,241,200,255,65,254,178,35,17,209,152,114,153,175,-95,-9.50,
22,3,57,87,2,250,191,88,52,213,186,78,57,0,185,147,130,0,63,9,20,91,26,235,26,168,133,197,163,178,163,87,155,221,65,177,102,69,66,241,200,255,65,254,180,211,18,27,154,8,19,72,-95,-9.50,
22,3,58,7,2,251,191,88,51,196,186,77,111,0,185,134,16,0,63,9,22,10,27,90,30,246,157,139,160,222,165,10,156,18,65,177,102,69,66,241,200,255,65,254,177,152,16,105,154,70,12,213,-93,-10.50,
22,3,58,27,2,252,191,88,45,94,186,75,31,0,185,143,56,0,63,9,32,31,27,157,29,233,155,103,168,63,164,129,161,24,65,177,102,69,66,241,200,255,65,254,175,13,8,222,156,1,144,22,-93,-10.25,
22,3,58,46,2,253,191,88,56,6,186,76,193,128,185,134,92,0,63,9,15,79,26,166,30,228,157,1,165,31,156,172,158,104,65,177,102,69,66,241,200,255,65,254,180,37,21,94,156,142,20,218,-94,-10.75,
22,3,58,66,2,254,191,88,50,194,186,82,197,64,185,130,69,0,63,9,23,158,28,119,27,208,149,35,164,67,155,104,152,231,65,177,102,69,66,241,200,255,65,254,177,183,20,96,156,37,146,74,-95,-9.25,
22,3,58,86,2,255,191,88,50,249,186,78,137,0,185,127,14,0,63,9,23,73,27,151,29,119,153,143,160,91,164,198,153,36,65,177,102,69,66,241,200,255,65,254,155,8,19,195,157,86,156,2,-94,-9.00,
22,3,59,5,3,0,191,88,27,102,186,81,4,192,185,145,91,0,63,9,60,112,29,45,28,234,154,16,166,130,161,90,23,182,65,177,102,69,66,241,200,255,65,254,163,138,141,195,156,233,155,99,-93,-9.50,
22,3,59,25,3,1,191,88,17,58,186,74,161,192,185,126,42,0,63,9,76,113,28,24,25,223,17,105,169,37,163,88,16,92,65,177,102,69,66,241,200,255,65,254,166,57,146,162,156,101,153,224,-95,-8.50,
22,3,59,44,3,2,191,88,8,134,186,91,198,64,185,149,98,0,63,9,90,29,27,206,30,87,155,9,163,14,129,71,28,110,65,177,102,69,66,241,200,255,65,254,168,249,147,80,156,152,18,214,-95,-8.75,
22,3,59,64,3,3,191,87,255,212,186,89,108,64,185,97,68,0,63,9,103,206,27,124,29,139,153,78,152,25,27,158,160,168,65,177,102,69,66,241,200,255,65,254,162,66,150,104,156,23,16,227,-98,-8.00,
22,3,59,84,3,4,191,87,252,163,186,97,4,0,185,139,96,0,63,9,108,209,29,71,30,149,157,184,157,61,153,201,155,32,65,177,102,69,66,241,200,255,65,254,139,39,153,139,156,185,151,184,-97,-8.75,
22,4,0,3,3,5,191,87,254,16,186,90,119,64,185,114,6,0,63,9,106,151,29,233,25,235,147,66,158,142,154,132,159,108,65,177,102,69,66,241,200,255,65,254,141,106,153,83,157,107,145,140,-95,-11.25,
22,4,0,23,3,6,191,87,255,199,186,91,173,64,185,134,103,0,63,9,103,226,26,135,32,33,158,23,1,250,25,109,28,56,65,177,102,69,66,241,200,255,65,254,135,55,148,192,156,233,153,164,-95,-9.25,
22,4,0,42,3,7,191,87,234,168,186,92,247,0,185,128,171,0,63,9,137,18,28,14,25,221,23,145,164,80,30,123,28,236,65,177,102,69,66,241,200,255,65,254,133,158,152,185,156,59,149,52,-95,-8.75,
22,4,0,62,3,8,191,87,238,171,186,100,58,0,185,132,158,0,63,9,130,197,28,102,30,54,156,238,31,66,15,107,155,234,65,177,102,69,66,241,200,255,65,254,133,18,152,79,157,196,150,196,-94,-10.25,
22,4,0,82,3,9,191,87,238,16,186,94,253,192,185,125,254,0,63,9,131,182,28,34,29,97,155,59,35,40,32,67,153,170,65,177,102,69,66,241,200,255,65,254,116,205,153,48,157,227,155,47,-94,-10.00,
22,4,1,1,3,10,191,87,241,244,186,88,48,128,185,99,248,0,63,9,125,154,25,238,31,189,156,245,16,249,149,119,157,221,65,177,102,69,66,241,200,255,65,254,121,14,148,186,157,127,154,143,-97,-8.50,
22,4,1,21,3,11,191,87,233,43,186,89,194,192,185,138,69,0,63,9,139,102,24,248,28,238,149,224,26,180,24,65,14,140,65,177,102,69,66,241,200,255,65,254,122,106,148,185,157,19,154,122,-98,-7.50,
22,4,1,41,3,12,191,87,233,66,186,93,102,0,185,86,48,0,63,9,139,66,27,59,30,172,157,42,36,175,34,7,121,99,17,183,99,69,66,241,200,255,65,254,116,128,150,171,157,9,154,250,-97,-9.25,
22,4,1,60,3,13,191,87,233,72,186,91,8,192,185,76,196,0,63,9,139,57,25,70,29,42,149,63,36,211,11,201,161,125,65,177,102,69,66,241,200,255,65,254,90,56,151,57,158,5,158,176,-95,-7.75,
22,4,1,80,3,14,191,87,220,226,186,90,38,192,185,67,138,0,63,9,158,171,26,138,30,51,153,252,32,93,160,252,155,115,65,177,102,69,66,241,200,255,65,254,74,215,153,145,157,29,157,224,-97,-7.50,
22,4,2,0,3,15,191,87,213,124,186,91,228,64,185,89,10,0,63,9,170,69,27,230,26,139,150,148,162,98,27,62,154,134,65,177,102,69,66,241,200,255,65,254,68,102,154,251,156,100,157,48,-94,-8.00,
22,4,2,19,3,16,191,87,220,14,186,92,242,192,185,42,110,0,63,9,159,249,25,196,30,165,157,198,30,73,157,92,157,221,65,177,102,69,66,241,200,255,65,254,68,91,150,189,156,67,158,197,-94,-8.00,
22,4,2,39,3,17,191,87,219,102,186,99,74,128,185,67,176,0,63,9,161,0,22,186,29,150,151,169,36,152,145,173,158,173,65,177,102,69,66,241,200,255,65,254,70,158,148,209,156,28,159,48,-94,-8.25,
22,4,2,58,3,18,191,87,219,52,186,98,186,192,185,56,202,0,63,9,161,77,26,21,30,84,156,82,27,175,24,186,158,55,65,177,102,69,66,241,200,255,65,254,51,143,152,46,156,87,160,163,-93,-8.75,
22,4,2,78,3,19,191,87,221,200,186,94,172,64,185,51,150,0,63,9,157,69,27,27,31,166,157,77,161,254,157,209,160,54,65,177,102,69,66,241,200,255,65,254,55,104,152,48,156,92,160,154,-93,-7.25,
22,4,2,98,3,20,191,87,218,213,186,95,175,192,185,60,26,0,63,9,161,228,27,108,26,33,151,126,158,184,150,39,162,97,65,177,102,69,66,241,200,255,65,254,55,37,151,232,156,95,161,96,-93,-9.25,
22,4,3,17,3,21,191,87,210,145,186,93,253,192,185,102,14,0,63,9,174,217,25,109,29,57,152,66,163,42,26,42,157,6,65,177,102,69,66,241,200,255,65,254,42,246,152,82,156,95,161,126,-93,-9.00,
22,4,3,37,3,22,191,87,210,120,186,95,162,0,185,85,30,0,63,9,174,253,24,189,29,95,149,67,157,192,161,95,20,183,65,177,102,69,66,241,200,255,65,254,23,145,152,202,157,28,162,158,-93,-9.50,
22,4,3,57,3,23,191,87,210,78,186,101,90,128,185,81,42,0,63,9,175,68,27,245,30,227,157,206,162,51,157,236,161,13,65,177,102,69,66,241,200,255,65,254,24,192,152,224,155,137,161,99,-93,-9.50,
22,4,3,76,3,24,191,87,205,4,186,99,216,64,185,73,68,0,63,9,183,142,28,83,23,240,12,41,165,116,31,10,14,232,65,177,102,69,66,241,200,255,65,254,30,71,153,170,152,219,158,73,-93,-9.75,
22,4,3,96,3,25,191,87,188,81,186,96,31,64,185,56,96,0,63,9,209,183,25,104,31,239,157,145,167,19,145,43,160,178,65,177,102,69,66,241,200,255,65,254,34,225,156,40,151,41,154,254,-93,-8.50,
22,4,4,15,3,26,191,87,188,79,186,96,2,192,185,52,76,0,63,9,209,185,27,155,26,75,17,163,165,211,12,184,155,220,65,177,102,69,66,241,200,255,65,254,39,62,155,129,146,2,154,239,-94,-9.50,
22,4,4,35,3,27,191,87,187,166,186,98,111,0,185,16,244,0,63,9,210,193,28,98,29,45,155,31,163,44,160,58,28,80,65,177,102,69,66,241,200,255,65,254,30,105,156,163,148,19,156,46,-94,-9.50,
22,4,4,55,3,28,191,87,195,117,186,99,209,0,184,251,40,0,63,9,198,134,28,107,24,214,19,62,158,1,146,228,152,31,65,177,102,69,66,241,200,255,65,254,28,78,156,226,153,124,154,212,-93,-10.00,
22,4,4,74,3,29,191,87,194,27,186,103,217,64,185,12,80,0,63,9,200,164,28,92,32,5,157,203,158,135,30,82,152,67,65,177,102,69,66,241,200,255,65,254,38,111,157,72,153,253,131,225,-93,-9.75,
22,4,4,94,3,30,191,87,202,17,186,104,113,0,185,22,38,0,63,9,188,44,28,76,28,137,152,97,160,102,159,133,161,191,65,177,102,69,66,241,200,255,65,254,32,201,156,101,155,39,156,6,-94,-10.75,
22,4,5,13,3,31,191,87,188,108,186,107,109,128,185,6,58,0,63,9,209,133,26,171,26,197,145,37,15,141,155,223,156,240,65,177,102,69,66,241,200,255,65,254,51,230,156,120,152,181,148,195,-94,-10.50,
22,4,5,33,3,32,191,87,188,184,186,106,122,64,185,3,216,0,63,9,209,20,27,99,30,126,155,252,29,255,18,118,152,64,65,177,102,69,66,241,200,255,65,254,54,127,157,117,153,204,151,5,-93,-10.50,
22,4,5,53,3,33,191,87,189,130,186,101,226,192,184,219,184,0,63,9,207,216,28,53,24,162,17,70,146,79,25,169,151,69,65,177,102,69,66,241,200,255,65,254,60,91,157,124,152,249,153,190,-93,-10.00,
22,4,5,72,3,34,191,87,194,50,186,99,91,128,184,233,20,0,63,9,200,126,28,129,26,127,137,86,155,246,19,39,160,238,65,177,102,69,66,241,200,255,65,254,64,227,156,237,152,20,149,113,-93,-9.25,
22,4,5,92,3,35,191,87,200,202,186,96,211,64,184,213,112,0,63,9,190,43,26,249,26,89,145,134,2,213,158,55,158,88,65,177,102,69,66,241,200,255,65,254,80,70,156,4,152,93,8,81,-93,-11.00,
22,4,6,31,3,37,191,87,199,238,186,98,67,0,184,78,224,0,63,9,191,135,28,182,24,196,20,58,152,248,159,77,157,3,65,177,102,69,66,241,200,255,65,254,83,165,158,62,154,105,151,56,-92,-10.75,
22,4,6,51,3,38,191,87,208,234,186,100,53,64,184,35,200,0,63,9,177,109,27,248,30,191,156,176,25,227,33,43,152,203,65,177,102,69,66,241,200,255,65,254,83,144,157,171,154,33,157,19,-93,-9.00,
22,4,6,70,3,39,191,87,215,137,186,101,188,64,184,26,56,0,63,9,167,13,27,54,25,87,19,90,32,113,157,191,154,188,65,177,102,69,66,241,200,255,65,254,83,138,157,51,155,199,159,227,-91,-10.75,
22,4,6,90,3,40,191,87,209,7,186,103,48,192,184,136,176,0,63,9,177,64,25,216,31,22,156,34,144,196,24,248,156,199,65,177,102,69,66,241,200,255,65,254,90,217,156,144,153,43,157,124,-92,-10.75,
22,4,7,9,3,41,191,87,210,8,186,100,154,64,183,254,112,0,63,9,175,177,27,92,29,91,156,120,23,50,31,59,157,235,65,177,102,69,66,241,200,255,65,254,84,207,157,151,153,212,158,133,-91,-10.25,
22,4,7,29,3,42,191,87,203,184,186,112,70,192,184,157,180,0,63,9,185,149,27,167,29,60,153,208,33,65,14,190,157,253,65,177,102,69,66,241,200,255,65,254,95,151,157,148,152,145,152,70,-91,-11.50,
22,4,7,49,3,43,191,87,202,170,186,108,107,192,183,56,128,0,63,9,187,60,27,181,27,171,145,36,31,120,25,220,156,241,65,177,102,69,66,241,200,255,65,254,99,9,157,231,151,161,13,157,-92,-10.00,
22,4,7,68,3,44,191,87,191,85,186,105,124,128,183,244,144,0,63,9,204,253,27,8,29,129,153,157,160,104,156,167,157,136,65,177,102,69,66,241,200,255,65,254,102,211,158,27,141,21,17,42,-93,-11.50,
22,4,7,88,3,45,191,87,199,204,186,101,27,192,183,138,176,0,63,9,191,184,25,79,29,63,153,107,160,17,27,191,158,152,65,177,102,69,66,241,200,255,65,254,106,122,158,50,142,232,26,3,-92,-11.00,
22,4,8,27,3,47,191,87,196,151,186,102,228,64,184,23,24,0,63,9,196,193,27,241,24,212,19,211,158,34,137,17,160,76,65,177,102,69,66,241,200,255,65,254,108,160,159,86,142,236,26,244,-92,-10.00,
22,4,8,47,3,48,191,87,196,94,186,98,88,128,55,61,0,0,63,9,197,29,27,14,29,191,154,101,165,231,155,201,24,160,65,177,102,69,66,241,200,255,65,254,123,216,159,56,12,90,29,177,-92,-8.75,
22,4,8,66,3,49,191,87,197,132,186,98,2,128,182,242,128,0,63,9,195,81,28,66,27,181,137,77,167,122,158,93,160,221,65,177,102,69,66,241,200,255,65,254,120,104,157,248,21,156,25,77,-91,-9.25,
22,4,8,86,3,50,191,87,196,13,186,101,9,64,183,140,224,0,63,9,197,154,24,188,29,239,154,135,164,17,164,97,156,236,65,177,102,69,66,241,200,255,65,254,117,197,158,210,17,221,23,8,-91,-10.00,
22,4,9,5,3,51,191,87,203,99,186,105,150,0,183,210,128,0,63,9,186,26,26,102,30,75,156,52,164,85,154,132,159,137,65,177,102,69,66,241,200,255,65,254,124,30,159,243,134,78,149,77,-90,-9.50,
22,4,9,25,3,52,191,87,205,183,186,108,108,0,54,239,192,0,63,9,182,117,27,25,28,172,150,206,164,54,162,62,157,239,65,177,102,69,66,241,200,255,65,254,133,45,160,78,139,90,153,48,-91,-11.00,
22,4,9,45,3,53,191,87,204,130,186,112,148,128,183,187,144,0,63,9,184,91,27,172,29,79,153,100,163,92,159,7,22,175,65,177,102,69,66,241,200,255,65,254,133,151,160,97,136,69,156,178,-90,-11.50,
22,4,9,65,3,54,191,87,209,244,186,104,157,128,55,165,176,0,63,9,175,210,27,94,26,198,18,164,165,0,156,104,142,116,65,177,102,69,66,241,200,255,65,254,132,36,160,50,11,208,158,34,-91,-10.25,
22,4,9,84,3,55,191,87,208,128,186,104,45,192,54,225,192,0,63,9,178,23,27,58,28,118,153,39,164,37,27,26,17,42,65,177,102,69,66,241,200,255,65,254,137,44,160,190,141,172,158,61,-92,-10.25,
22,4,10,4,3,56,191,87,207,242,186,114,89,0,183,58,160,0,63,9,178,246,27,137,27,154,142,230,33,122,20,100,160,177,65,177,102,69,66,241,200,255,65,254,144,8,160,7,9,146,159,120,-93,-8.75,
22,4,10,23,3,57,191,87,198,111,186,114,229,192,182,104,128,0,63,9,193,223,28,89,24,90,18,16,26,156,160,13,152,198,65,177,102,69,66,241,200,255,65,254,156,227,159,199,21,13,158,222,-91,-10.00,
22,4,10,43,3,58,191,87,199,90,186,118,169,128,184,147,80,0,63,9,192,109,28,24,26,199,148,128,164,41,160,192,28,170,65,177,102,69,66,241,200,255,65,254,160,111,159,203,18,97,159,63,-89,-11.75,
22,4,10,62,3,59,191,87,219,104,186,111,5,128,184,135,156,0,63,9,160,251,27,72,30,105,156,196,162,175,160,125,33,95,65,177,102,69,66,241,200,255,65,254,169,92,157,65,18,147,155,0,-91,-11.25,
22,4,10,82,3,60,191,87,216,122,186,119,122,64,184,207,8,0,63,9,165,150,26,169,28,42,148,203,26,84,160,202,145,176,65,177,102,69,66,241,200,255,65,254,170,191,157,174,16,9,155,144,-93,-7.25,
22,4,11,2,3,61,191,87,222,141,186,116,34,128,184,159,96,0,63,9,156,14,27,227,30,36,154,83,8,140,157,148,161,202,65,177,102,69,66,241,200,255,65,254,173,3,157,154,8,132,157,121,-94,-7.75,
22,4,11,21,3,62,191,87,211,195,186,118,89,0,184,166,120,0,63,9,172,252,28,198,23,188,131,68,162,66,32,134,26,50,65,177,102,69,66,241,200,255,65,254,192,68,159,118,14,93,144,185,-94,-8.00,
22,4,11,41,3,63,191,87,222,62,186,120,74,128,184,179,100,0,63,9,156,139,28,170,29,44,153,180,152,166,27,8,144,148,65,177,102,69,66,241,200,255,65,254,215,1,158,238,138,234,25,106,-92,-9.50,
22,4,11,60,3,64,191,87,221,179,186,122,80,0,184,175,240,0,63,9,157,97,26,142,28,163,150,130,148,243,157,46,150,28,65,177,102,69,66,241,200,255,65,254,220,16,159,58,146,220,23,191,-91,-10.00,
22,4,11,80,3,65,191,87,224,162,186,124,147,0,184,6,88,0,63,9,152,200,26,155,31,37,157,39,28,47,12,95,153,152,65,177,102,69,66,241,200,255,65,254,239,64,158,213,141,255,28,229,-93,-8.75,
22,4,12,0,3,66,191,87,225,183,186,128,186,96,183,155,16,0,63,9,151,22,28,139,23,22,22,249,30,255,36,16,156,195,65,177,102,69,66,241,200,255,65,255,1,149,160,169,149,251,27,84,-93,-8.75,
22,4,12,19,3,67,191,87,222,220,186,127,35,192,183,163,128,0,63,9,155,148,27,134,30,16,156,75,27,175,13,59,144,218,65,177,102,69,66,241,200,255,65,255,9,244,160,13,137,0,24,242,-93,-8.50,
22,4,12,39,3,68,191,87,228,81,186,125,235,128,183,241,240,0,63,9,147,1,27,33,29,167,151,120,158,228,29,104,24,10,65,177,102,69,66,241,200,255,65,255,27,73,159,158,141,135,28,23,-93,-8.25,
22,4,12,59,3,69,191,87,226,198,186,127,197,0,184,49,224,0,63,9,149,108,27,87,28,198,152,12,160,82,149,143,14,48,65,177,102,69,66,241,200,255,65,255,21,219,160,73,146,125,25,180,-93,-8.25,
22,4,12,78,3,70,191,87,223,123,186,126,73,0,183,234,128,0,63,9,154,151,27,163,27,175,145,198,152,96,3,254,152,246,65,177,102,69,66,241,200,255,65,255,28,180,160,5,4,231,19,204,-93,-8.25,
22,4,12,98,3,71,191,87,236,82,186,122,52,128,0,0,0,0,63,9,134,111,27,62,26,219,16,39,35,26,149,235,153,18,65,177,102,69,66,241,200,255,65,255,31,7,160,29,150,113,153,109,-93,-8.50,
22,4,13,17,3,72,191,87,221,184,186,121,197,192,184,13,104,0,63,9,157,92,26,191,29,233,155,198,129,158,156,59,163,21,65,177,102,69,66,241,200,255,65,255,36,220,160,112,137,20,157,139,-93,-8.75,
22,4,13,37,3,73,191,87,235,27,186,114,142,128,183,150,160,0,63,9,136,89,25,254,29,43,153,222,161,188,153,104,160,200,65,177,102,69,66,241,200,255,65,255,45,221,160,11,141,88,148,44,-93,-8.00,
22,4,13,57,3,74,191,87,232,173,186,120,231,64,184,118,8,0,63,9,140,45,25,212,32,10,158,148,149,103,32,54,33,196,65,177,102,69,66,241,200,255,65,255,52,18,160,138,143,191,145,199,-93,-8.75,
22,4,13,76,3,75,191,87,222,55,186,122,253,192,184,54,176,0,63,9,156,148,24,140,29,194,153,98,23,23,163,67,151,26,65,177,102,69,66,241,200,255,65,255,68,113,160,238,18,11,28,157,-93,-8.25,
22,4,13,96,3,76,191,87,217,249,186,122,181,0,184,70,208,0,63,9,163,60,26,43,30,203,156,199,33,44,160,188,160,75,65,177,102,69,66,241,200,255,65,255,83,195,160,174,23,45,30,2,-93,-8.25,
22,4,14,16,3,77,191,87,222,96,186,123,190,128,184,128,196,0,63,9,156,82,26,241,31,83,159,32,154,211,151,124,155,131,65,177,102,69,66,241,200,255,65,255,77,130,160,57,24,6,28,205,-92,-8.25,
22,4,14,35,3,78,191,87,222,76,186,116,130,192,183,208,0,0,63,9,156,116,25,138,31,46,157,114,34,152,157,122,163,225,65,177,102,69,66,241,200,255,65,255,72,70,160,101,23,128,26,32,-93,-8.25,
22,4,14,55,3,79,191,87,229,106,186,123,51,0,184,79,24,0,63,9,145,70,25,129,30,191,156,107,29,132,153,87,161,220,65,177,102,69,66,241,200,255,65,255,77,104,160,109,18,65,23,150,-93,-8.75,
22,4,14,75,3,80,191,87,247,85,186,112,210,0,184,15,240,0,63,9,117,39,25,7,31,34,156,180,152,66,158,46,150,6,65,177,102,69,66,241,200,255,65,255,82,84,159,76,135,132,146,70,-93,-8.25,
22,4,14,94,3,81,191,87,246,191,186,115,64,192,184,153,200,0,63,9,118,18,26,17,28,121,151,5,164,50,145,194,155,254,65,177,102,69,66,241,200,255,65,255,89,8,158,125,19,9,11,49,-93,-9.00,
22,4,15,14,3,82,191,87,252,168,186,112,82,192,184,8,0,0,63,9,108,199,27,237,26,141,143,84,154,203,165,60,163,60,65,177,102,69,66,241,200,255,65,255,95,133,158,77,18,74,19,184,-92,-8.50,
22,4,15,33,3,83,191,87,250,208,186,115,12,0,184,101,240,0,63,9,111,172,26,142,28,117,152,35,160,38,162,107,160,67,65,177,102,69,66,241,200,255,65,255,100,244,159,67,15,165,18,102,-92,-8.50,
22,4,15,53,3,84,191,88,8,187,186,109,195,0,184,29,0,0,63,9,89,204,27,70,28,67,147,90,155,251,154,192,21,49,65,177,102,69,66,241,200,255,65,255,100,183,158,41,138,59,150,7,-92,-8.75,
22,4,15,73,3,85,191,88,19,165,186,114,61,0,184,188,80,0,63,9,72,159,24,41,29,236,151,114,163,1,164,14,153,210,65,177,102,69,66,241,200,255,65,255,103,149,156,29,145,136,153,193,-93,-8.75,
22,4,15,92,3,86,191,88,29,123,186,111,241,128,184,166,248,0,63,9,57,38,28,25,28,12,146,172,163,161,161,70,28,3,65,177,102,69,66,241,200,255,65,255,102,137,154,251,149,226,156,117,-93,-7.75,
22,4,16,12,3,87,191,88,28,31,186,114,192,0,184,146,48,0,63,9,59,71,28,33,29,251,156,207,164,133,150,130,160,139,65,177,102,69,66,241,200,255,65,255,97,111,156,161,152,36,156,246,-94,-8.00,
22,4,16,32,3,88,191,88,32,212,186,118,80,0,184,84,32,0,63,9,51,221,28,177,26,129,14,19,165,93,162,169,158,223,65,177,102,69,66,241,200,255,65,255,97,232,156,212,154,225,156,154,-93,-8.50,
22,4,16,51,3,89,191,88,23,147,186,115,185,64,184,116,240,0,63,9,66,112,27,232,31,186,157,140,163,89,160,19,18,38,65,177,102,69,66,241,200,255,65,255,93,114,157,16,153,235,157,40,-93,-8.00,
22,4,16,71,3,90,191,88,31,150,186,115,175,0,184,18,80,0,63,9,53,212,28,226,24,225,7,224,168,40,158,14,156,239,65,177,102,69,66,241,200,255,65,255,104,95,156,41,150,142,153,50,-93,-7.75,
22,4,16,90,3,91,191,88,30,230,186,117,22,192,184,32,40,0,63,9,54,232,28,208,30,72,156,244,161,102,160,169,32,189,65,177,102,69,66,241,200,255,65,255,102,152,156,152,150,79,152,181,-94,-8.25,
22,4,17,10,3,92,191,88,30,234,186,116,95,128,184,46,224,0,63,9,54,226,28,1,27,83,147,180,3,172,157,212,156,203,65,177,102,69,66,241,200,255,65,255,102,3,157,32,151,104,154,27,-94,-8.00,
22,4,17,30,3,93,191,88,33,120,186,115,10,192,183,181,160,0,63,9,50,222,28,5,31,172,157,164,150,224,159,130,160,14,65,177,102,69,66,241,200,255,65,255,98,184,157,182,152,37,158,118,-94,-8.00,
22,4,17,49,3,94,191,88,28,175,186,120,54,128,184,49,0,0,63,9,58,104,28,184,25,238,149,114,33,246,141,34,159,213,65,177,102,69,66,241,200,255,65,255,82,59,156,202,147,145,160,211,-95,-8.50,
22,4,17,69,3,95,191,88,25,42,186,120,182,64,184,151,244,0,63,9,63,238,28,163,28,251,153,156,17,23,158,72,158,142,65,177,102,69,66,241,200,255,65,255,83,207,156,138,142,67,159,4,-93,-8.00,
22,4,17,88,3,96,191,88,13,114,186,118,165,64,184,163,164,0,63,9,82,96,28,76,26,117,143,128,161,25,28,96,17,210,65,177,102,69,66,241,200,255,65,255,89,36,156,89,23,203,156,7,-92,-8.25,
22,4,18,8,3,97,191,88,11,138,186,121,125,64,184,183,168,0,63,9,85,95,27,225,29,47,154,135,33,184,161,204,158,45,65,177,102,69,66,241,200,255,65,255,86,137,156,227,20,13,156,142,-93,-8.00,
22,4,18,28,3,98,191,88,5,2,186,124,220,64,184,229,68,0,63,9,95,168,25,227,29,130,149,129,36,162,30,5,25,201,65,177,102,69,66,241,200,255,65,255,86,137,157,26,21,10,146,95,-93,-7.75,
22,4,18,47,3,99,191,88,18,91,186,122,96,192,184,164,100,0,63,9,74,169,26,197,28,178,150,96,152,248,161,165,159,38,65,177,102,69,66,241,200,255,65,255,88,202,157,24,136,43,145,196,-92,-8.00,
22,4,18,67,3,100,191,88,14,177,186,128,120,32,184,245,236,0,63,9,80,111,27,111,31,56,157,44,33,227,19,10,152,119,65,177,102,69,66,241,200,255,65,255,70,135,157,121,150,25,157,183,-93,-8.00,
22,4,18,86,3,101,191,88,13,218,186,125,189,128,184,240,204,0,63,9,81,188,26,77,31,75,157,111,39,46,27,134,31,46,65,177,102,69,66,241,200,255,65,255,66,210,158,2,151,221,158,80,-93,-7.50,
22,4,19,6,3,102,191,88,12,241,186,122,50,128,184,185,204,0,63,9,83,45,26,156,30,143,156,144,32,194,129,48,159,193,65,177,102,69,66,241,200,255,65,255,68,98,157,71,146,129,159,16,-92,-8.00,
22,4,19,26,3,103,191,88,9,225,186,120,112,192,184,189,76,0,63,9,88,0,28,198,24,36,18,90,145,156,159,132,151,205,65,177,102,69,66,241,200,255,65,255,76,136,158,48,149,153,154,23,-93,-8.25,
22,4,19,45,3,104,191,88,1,57,186,122,250,0,184,224,172,0,63,9,101,154,26,19,28,235,151,220,156,242,29,100,157,93,65,177,102,69,66,241,200,255,65,255,74,113,158,114,1,148,146,235,-93,-8.00,
22,4,19,65,3,105,191,88,12,234,186,118,36,192,184,61,56,0,63,9,83,55,27,94,27,252,144,209,29,82,161,66,152,28,65,177,102,69,66,241,200,255,65,255,75,45,157,69,137,173,16,46,-93,-7.75,
22,4,19,84,3,106,191,88,11,3,186,123,120,0,184,184,0,0,63,9,86,54,21,26,30,219,155,140,28,251,144,236,161,94,65,177,102,69,66,241,200,255,65,255,70,108,157,186,145,237,145,197,-93,-7.75,
