UTC,Pack_count,q0,q1,q2,q3,RollRate,PitchRate,YawRate,Roll,Pitch,Yaw,FreeAccX,FreeAccY,FreeAccZ,Lat,Long,Height,VelX,VelY,VelZ,LoRaRSSI,LoRaSNR,
21:48:38:18,3411,0.094489    0.003366  -0.0053313    -0.99551,-0.013382    -0.00284     0.01329,0.6446509     0.3262519     -169.1541,0.070984     0.20813     0.34204,24.8067      121.0487      72.78928,0.0051689       -0.13   -0.006279,-57,6.5,
21:48:38:49,3412,0.094696   0.0011612  -0.0047712    -0.99549,-0.031921   -0.028442  -0.0068283,0.556886    0.08068847     -169.1319,-0.48975     0.11115       1.459,24.8067      121.0487      72.79131,-0.020538     -0.1333   0.0033875,-57,7,
21:48:38:80,3413,0.094435   0.0028924  -0.0046826    -0.99552,0.013893     0.01178    0.027634,0.5654977     0.2792818     -169.1609,-0.27661    -0.15649     -1.5059,24.8067      121.0487      72.77178,-0.026291    -0.13721    -0.01384,-58,6.5,
21:48:39:11,3414,0.094516     0.00311  -0.0045079    -0.99551,0.025513   0.0060196   -0.024796,0.5479508      0.305955     -169.1515,0.44824     0.10626    -0.39648,24.8067      121.0487      72.76099,-0.0049744     -0.1217   -0.010895,-57,6.25,
21:48:39:42,3415,0.094345   0.0015775  -0.0047707    -0.99553,-0.023239  -0.0052338      0.0401,0.5613006     0.1283868      -169.172,-0.19885     0.42188      2.0449,24.8067      121.0487      72.76035,-0.0070992    -0.12415    0.020508,-58,7,
21:48:39:73,3416,0.094319   0.0015186  -0.0052467    -0.99553,0.0071678   0.0099945    0.019669,0.6149625     0.1165354      -169.175,-0.40479      1.0859     -1.0723,24.8067      121.0487      72.75361,-0.013077    -0.10632    0.011948,-57,6.25,
21:48:40:05,3417,0.094451   0.0013843  -0.0048644    -0.99552,0.01236   0.0039177   -0.013039,0.5699152     0.1052702     -169.1598,0.10565     -1.4736    -0.49805,24.8067      121.0487      72.74689,-0.015839    -0.11487   0.0053864,-57,5.75,
21:48:40:36,3418,0.094138   0.0021878  -0.0051652    -0.99554,0.023056  -0.0073776  -0.0040359,0.6128628     0.1938676     -169.1954,-0.10132      0.7749    -0.78711,24.8067      121.0487      72.74634,-0.016159   -0.099182    0.013153,-57,5.75,
21:48:40:67,3419,0.094135   0.0020744  -0.0047271    -0.99555,-0.063477   0.0040779     0.04007,0.5616599     0.1856595     -169.1959,-0.97168     0.62939    -0.22827,24.8067      121.0487      72.73823,-0.028198   -0.091003   0.0072594,-57,6,
21:48:40:98,3420,0.094209   0.0043341  -0.0045096    -0.99553,-0.037689     0.03038   -0.013588,0.561272     0.4457577      -169.186,0.71729     -2.1895    -0.42139,24.8067      121.0487      72.71411,-0.042969     -0.1087  -0.0080643,-56,6.75,
21:48:41:29,3421,0.094143  0.00082194  -0.0048083    -0.99555,0.039795   -0.028183   0.0094528,0.5574098    0.04189668     -169.1957,-0.50781     0.74756     -1.0029,24.8067      121.0487      72.70757,0.0055084   -0.069946 -0.00052214,-56,6.75,
21:48:41:60,3422,0.094508  -0.0031071  -0.0063309     -0.9955,0.01329   -0.017273   -0.019073,0.688588    -0.4230156     -169.1563,0.40161     0.23718    -0.70703,24.8067      121.0487      72.68781,-0.027664   -0.069336   -0.024399,-55,6.25,
21:48:41:91,3423,0.094301  -0.0030171  -0.0066435    -0.99552,0.027847    0.032959    0.013969,0.7253099    -0.4159827     -169.1802,-0.44702      0.5293     -1.0537,24.8067      121.0487      72.68611,-0.052094   -0.086853   0.0049515,-54,6,
21:48:42:22,3424,0.093752  -0.0047992  -0.0040374    -0.99558,-0.024796   -0.049957   -0.014961,0.4090758    -0.5908999     -169.2429,-0.56543       1.126    -0.15015,24.8067      121.0487      72.68647,-0.039398 -0.00030684    -0.01416,-54,6.5,
21:48:42:53,3425,0.091803   -0.010886  -0.0056429     -0.9957,0.027023   -0.074402    0.009407,0.5294795     -1.301536     -169.4705,1.8672     -1.4561      4.0391,24.8067      121.0487      72.68013,0.0077858    0.015656    0.016953,-57,6.75,
21:48:42:84,3426,0.091841   -0.020063   -0.011699     -0.9955,0.12024   -0.010765   -0.011719,1.124517     -2.412593     -169.4817,1.2969     -1.8037      2.0996,24.8067      121.0487      72.66135,0.017059    -0.22571  -0.0026588,-58,5.75,
21:48:43:16,3427,0.1007   -0.019273   -0.018084    -0.99457,-0.045868   -0.010475     0.10223,1.840584     -2.405889     -168.4758,0.56543     -3.7383    -0.35889,24.8067      121.0487      72.66558,0.11963    -0.81641    0.020111,-57,6.25,
21:48:43:46,3428,0.11341   -0.016453     -0.0155    -0.99329,0.051392    0.023773    0.077332,1.551696     -2.074665     -167.0014,0.20837     -2.8516     -1.0547,24.8067      121.0487       72.6609,0.29248      -1.459   0.0085602,-58,6.25,
21:48:43:78,3429,0.13628    0.005872   -0.016829    -0.99051,-0.040009     0.11359     0.10822,2.002314     0.4036946     -164.3251,0.13904     -2.1406    -0.26221,24.8067      121.0487      72.66735,0.45923     -2.1738     0.02597,-57,6,
21:48:44:09,3430,0.13214    0.024681   -0.016325    -0.99079,0.10529     0.12299     -0.0383,2.229998      2.555892     -164.7576,0.89453          -4     0.41772,24.80669      121.0487      72.67102,0.65869      -2.957    0.029663,-54,6,
21:48:44:40,3431,0.11238    0.050993   -0.013149    -0.99227,0.077087    0.087158    -0.26392,2.162768      5.637922     -166.9705,-1.2598    0.046722      0.6665,24.80669      121.0487      72.69708,0.7207     -3.7852    0.058167,-70,4,
21:48:44:71,3432,0.061998    0.049423   -0.017061    -0.99671,0.12286   -0.036072    -0.28931,2.311146      5.532226     -172.7696,-0.28076      -5.543      2.0781,24.80668      121.0487      72.73481,0.65283     -4.6641    0.077942,-68,4.5,
21:48:45:02,3433,0.027064    0.040676   -0.012479    -0.99873,-0.078003    -0.15393    -0.19275,1.559541      4.621471     -176.8325,-0.44922     0.50098    -0.56689,24.80667      121.0487      72.77862,0.41699     -5.5195    0.059601,-50,6.5,
21:48:45:33,3434,-0.0068675    0.013613   -0.016669    -0.99975,0.23669    -0.18799    -0.16162,1.900008      1.572893      179.2389,-1.8945     -5.9766    -0.19482,24.80666      121.0487      72.83966,0.26978     -6.3047     0.11926,-51,7,
21:48:45:64,3435,-0.006312  -0.0051429   -0.034945    -0.99936,0.0011826    0.075378    0.053436,4.008951    -0.5636924      179.2565,-0.7959     -3.7324     -2.9063,24.80664      121.0487      72.91208,0.02977     -7.0938     0.06897,-53,6.5,
21:48:45:95,3436,-0.0047044  3.0672e-05  -0.0087228    -0.99995,-0.2052   -0.029724   0.0026875,0.9995485   0.008216935       179.461,0.27686    -0.91064      4.6445,24.80663      121.0487      73.00771,0.05014       -7.75     0.12854,-58,5.75,
21:48:46:26,3437,-0.01073   0.0089233   -0.019701    -0.99971,-0.023819   0.0096741   -0.044586,2.246932      1.046524      178.7907,-0.91357     -3.2891     -0.7334,24.80661      121.0488      73.12522,-0.020096     -8.4688    0.057526,-67,4.75,
21:48:46:58,3438,-0.022215   0.0048208    -0.02352    -0.99947,-0.32495   -0.043732   -0.086914,2.682603     0.6120096      177.4678,0.29736     -3.2305     -1.8008,24.80658      121.0488      73.23732,-0.13062     -9.2266     0.11353,-52,6.75,
21:48:46:89,3439,-0.030049  -0.0088765   -0.013562    -0.99942,-0.028259   -0.043427   -0.040436,1.58418     -0.969922      176.5423,0.96484     -1.6758   -0.080566,24.80656      121.0488      73.36597,-0.22192     -9.8438     0.11127,-59,6,
21:48:47:20,3440,-0.029806   -0.019416   -0.013611    -0.99927,0.15771   -0.066406    0.036499,1.626233     -2.177298      176.5521,-0.39917     -1.0742    0.052063,24.80653      121.0488      73.50689,-0.284912     -10.4453     0.105713,-53,6,
21:48:47:51,3441,-0.025874   -0.016335   -0.018021    -0.99937,-0.31299   -0.036804    0.030975,2.113745     -1.817516      177.0003,0.30176     -1.6748     -3.1133,24.80651      121.0488      73.66431,-0.310791     -11.0703     0.126709,-54,6.25,
21:48:47:82,3442,-0.029273  -0.0067991   -0.017928    -0.99939,0.31567     0.10785   -0.055054,2.076551    -0.7185231      176.6315,-0.47388     -2.1172     -1.6689,24.80648      121.0488      73.82018,-0.343018     -11.6016     0.199707,-61,6.25,
21:48:48:14,3443,-0.034402   -0.013415   -0.010188    -0.99927,0.12988    -0.10382   -0.013718,1.219938     -1.496131      176.0405,0.44482    -0.70654      1.0928,24.80645      121.0488      73.99202,-0.358154      -12.125      0.19397,-58,6.25,
21:48:48:45,3444,-0.034264   -0.020763  -0.0068832    -0.99917,-0.19958  -0.0099335    0.023117,0.8703932     -2.350928       176.054,0.79883       1.332      2.3633,24.80642      121.0489      74.12095,-0.396729     -12.6563     0.126831,-58,6.25,
21:48:48:76,3445,-0.033449   -0.022221   -0.012789    -0.99911,0.16003 -0.00040197  -0.0067863,1.551068     -2.495818      176.1312,-0.61768     -3.9063      1.7666,24.80639      121.0489      74.27497,-0.390381     -13.1406     0.170898,-57,6.25,
21:48:49:07,3446,-0.032792   -0.025912  -0.0085462    -0.99909,-0.302   0.0042458    0.032471,1.077273     -2.935749      176.2126,0.71729    -0.17224      1.4883,24.80635      121.0489      74.44759,-0.38208     -13.6016     0.147827,-60,6.25,
21:48:49:38,3447,-0.03053   -0.022816   -0.015563    -0.99915,-0.083313     0.10321   -0.011635,1.863939     -2.558709       176.458,-0.67969    -0.63818      -3.082,24.80632      121.0489      74.66949,-0.334961     -14.0391     0.196533,-58,6.25,
21:48:49:69,3448,-0.030466   -0.020923   -0.012035    -0.99924,0.02504    0.033081   0.0076561,1.452528      -2.35441      176.4774,0.67139     0.64453     -3.1758,24.80628      121.0489      74.83749,-0.281982     -14.4063     0.131104,-68,4.75,
21:48:50:01,3449,-0.029127   -0.017972   -0.014603    -0.99931,-0.37964   -0.048401    0.036713,1.7335     -2.009729      176.6305,0.62354    -0.77246       2.123,24.80624       121.049      75.07793,-0.296631     -14.8672     0.202515,-69,4,
21:48:50:32,3450,-0.031075   -0.017122   -0.011959     -0.9993,0.31982    -0.11224    0.051605,1.431355     -1.918443      176.4137,-1.6943     -1.0215      -3.582,24.80621       121.049        75.283,-0.300049     -15.1875     0.135376,-67,4.75,
21:48:50:63,3451,-0.031616   -0.018353  -0.0084747     -0.9993,-0.067566     0.13135   0.0017223,1.03767     -2.071315       176.357,0.041351     -2.1895       0.427,24.80617       121.049      75.47028,-0.303955     -15.5859     0.200928,-68,4.5,
21:48:50:94,3452,-0.032003   -0.011583  -0.0034722    -0.99941,-0.59814    0.030701   -0.048523,0.4402474     -1.313869      176.3267,0.55029     0.88135     -3.2852,24.80613       121.049      75.64127,-0.298828     -15.9766    0.0745239,-66,5.5,
21:48:51:25,3453,-0.031599   -0.010126   -0.018504    -0.99928,0.23071   -0.035858    0.012177,2.156453     -1.092553       176.357,-0.54639     -3.5645     -3.0664,24.80609       121.049      75.83765,-0.314453     -16.2813     0.202026,-65,5.5,
21:48:51:57,3454,-0.033231  -0.0067433   -0.013998    -0.99933,0.76172    0.019012    0.034393,1.628983    -0.7189153      176.1806,-0.065369     -2.6738      2.8945,24.80604      121.0491       76.0492,-0.349121     -16.5938     0.312744,-67,5.25,
21:48:51:88,3455,-0.035365  -0.0077873  -0.0023848    -0.99934,0.0094452    0.071655    0.012428,0.3046942    -0.8821436      175.9441,1.1816    -0.19568      1.1006,24.806      121.0491      76.26083,-0.404541      -16.875     0.285156,-65,5,
21:48:52:19,3456,-0.035653   -0.010487  -0.0098498    -0.99926,0.37646    0.063049   -0.020615,1.171034     -1.160725      175.9013,-0.62305     0.39893    -0.79688,24.80596      121.0491      76.38754,-0.421875     -17.2344     0.157837,-72,2.5,
21:48:52:50,3457,-0.036812  -0.0094223  -0.0056024    -0.99926,-0.044769   -0.085022    0.012489,0.68139     -1.055348      175.7741,1.4492    -0.80371      5.3203,24.80591      121.0491      76.62664,-0.438477     -17.5313     0.250488,-70,4.25,
21:48:52:82,3458,-0.040392  -0.0097138   -0.011303    -0.99907,0.14758      0.1178   -0.039093,1.339312     -1.059829      175.3573,-0.35645     -1.1631      -1.416,24.80587      121.0492      76.85277,-0.49292     -17.8281     0.322754,-69,4.25,
21:48:53:13,3459,-0.043088   -0.015642   -0.010757    -0.99889,0.44238   -0.024872   -0.035126,1.309266     -1.737567      175.0402,-0.32935      0.7959     -7.0703,24.80582      121.0492      77.11871,-0.466553     -18.0469     0.306396,-69,4.25,
21:48:53:44,3460,-0.042289   -0.026738  -0.0017559    -0.99875,0.68115    0.078674     0.05957,0.3310012     -3.053067      175.1421,1.0137     0.63965      9.7031,24.80578      121.0492      77.35727,-0.499756     -18.2344     0.367188,-68,4.75,
21:48:53:75,3461,-0.039007   -0.027692   -0.013418    -0.99877,-0.045959     0.11902    0.013245,1.662185     -3.110879      175.4818,1.4316     -3.0781    -0.49707,24.80573      121.0492      77.63428,-0.426514     -18.5625     0.322754,-70,3.75,
21:48:54:06,3462,-0.03650466725230217   -0.02258225902915001 -1.253068562717737e+17    -0.9990565180778503,-0.0029678      0.1665    0.032928,180  3.338306e-17           180,-0.70605    -0.40234      1.9063,24.80569      121.0493      77.94125,-0.381348     -18.7656     0.325684,-73,2,
21:48:54:37,3463,-0.037951  -0.0091743   0.0019068    -0.99924,-0.16895    -0.08905   0.0029335,-0.1784746     -1.058845      175.6516,-0.59326      2.2031    -0.59082,24.80564      121.0493      78.15849,-0.303711     -18.9375     0.177124,-75,-1.25,
21:48:54:69,3464,-0.039933  -0.0025059  -0.0090794    -0.99916,0.46362    0.049408   -0.033783,1.051081    -0.2453611      175.4203,0.78711     -1.8975      -1.002,24.80559      121.0493      78.33954,-0.333252          -19     0.217041,-72,2.25,
21:48:55:00,3465,-0.042933  -0.0042284  7.0408e-06    -0.99907,-0.41748     0.13403   -0.048981,0.01999775    -0.4841318      175.0785,-0.70801         2.5     -8.6719,24.80554      121.0494      78.55351,-0.415283     -18.9688      0.16272,-77,-5.25,
21:48:55:31,3466,-0.042059   -0.019177  -0.0054038    -0.99892,0.31958    -0.10736    0.039764,0.7115156     -2.169641      175.1646,1.1055       1.582     -3.6758,24.80549      121.0494      78.74771,-0.406982     -18.7813     0.246704,-73,1.75,
21:48:55:62,3467,-0.041307   -0.024558   0.0035695    -0.99884,-0.80322    -0.23792     0.06189,-0.2926772     -2.828936       175.271,-0.098267     -0.7583      5.1953,24.80544      121.0494      78.89063,-0.370117     -18.7969     0.072998,-74,-1,
90:89:199:199,384,5.142422749574911e+31   -0.03099849820137024   0.006450001150369644    -0.1248517632484436,-0.010902405  -0.0090332031          -1646,-6.9076e-32  1.4373e-32 -2.7821e-31,-0.00059366      2.2227   -0.001482,30.80541610717773  3.629612389890884e+29  6.053971676807128e+30,-90.625     -18.2344     0.103027,-74,1.25,
21:48:56:25,3469,-0.035777   -0.015105  -0.0091517     -0.9992,-0.14917    -0.18115    0.081421,1.110358     -1.692245      175.8823,-0.84375       2.082    -0.51221,24.80535 -1.012849e-37      175.5125,-0.261475     -18.3906    0.0038929,-77,-6,
21:48:56:56,3470,-0.038693  -0.0031593    0.013328    -0.99915,-0.074219    -0.05426   -0.056732,-1.51219    -0.4208298      175.5701,0.89502      2.2695     -3.2305,24.8053      121.0495      79.06032,-0.231079     -18.0625       0.1698,-76,-4,
21:48:56:87,3471,-0.040112  -0.0060405   0.0021794    -0.99917,0.099792   -0.025116    0.036865,-0.2217869    -0.7016567      175.4035,-0.10272      2.4277     -3.1699,24.80526      121.0495      79.07848,-0.289307     -17.7031    0.0935669,-76,-4,
21:48:57:17,3472,-0.042438  -0.0055353   0.0057194    -0.99907,-0.053497   -0.033142   -0.040771,-0.6279211    -0.6615353       175.139,-0.51904      1.0508     -1.8047,24.80522      121.0495      78.99846,-0.324951     -17.3906     0.113831,-74,0.5,
21:48:57:49,3473,-0.046606   -0.014984    0.016588    -0.99866,-0.373535      20.7656     -2.75977,-1.819463     -1.803603      174.6848,1.0252e-05           164      3.435547,24.80517      121.0496      78.98466,-0.319824     -16.9844   -0.0848389,-77,-9.25,
21:48:57:80,3474,-0.043866   -0.030059  -0.0023714    -0.99858,0.19495  -0.0036926  0.00045037,0.4232102     -3.429746      174.9568,-0.77734     -1.7217      1.4336,24.80513      121.0496      79.00298,-0.321777     -16.6406     0.118469,-74,0.25,
21:48:58:11,3475,-0.043509   -0.028774    0.019513    -0.99845,-0.61914    0.096619 -0.00039482,-2.093281     -3.391368      175.0716,0.66211      3.5137     -1.5967,24.80509      121.0496      78.97907,-0.269043     -16.2813    0.0799561,-73,2,
21:48:58:42,3476,-0.038153    -0.02494   0.0031803    -0.99896,0.62402     0.19531    0.036438,-0.2553341      -2.87002      175.6319,-0.3938       1.126      2.4609,24.80505      121.0496      78.88118,-0.219116     -15.6953     0.110107,-77,-6,
21:48:58:73,3477,-0.039755  -0.0065783 -7.7747e-06    -0.99919,0.43848     0.40137    -0.10431,0.0308607    -0.7531943       175.443,0.025482      4.0703     -5.3984,24.80501      121.0497      78.73904,-0.151611     -15.4766     0.209351,-77,-6,
21:48:59:04,3478,-0.043806  -0.0041317    0.017199 -1.2321e-29,0.22803   -0.017303   -0.040558,12.7014     -42.4657     -4.95216,1.3809      4.8164     -6.0156,24.80497      121.0497      78.59233,-0.178833     -15.0313    0.0925293,-76,-2.25,
21:48:59:35,3479,-0.044592   -0.012431 -0.00083867    -0.99893,-0.056396    -0.02623  -0.0011368,0.1595718     -1.418829      174.8861,-0.51855    -0.62305     -2.9766,24.80493      121.0497      78.52158,-0.232666     -14.7188    0.0289001,-73,1.25,
21:48:59:67,3480,-0.045048  -0.0089068    0.013762    -0.99885,-0.22192    0.032654   -0.029816,-1.529646      -1.09058        174.85,0.18787      2.5742    -0.22803,24.8049      121.0497      78.41537,-0.247559     -14.3594    0.0507202,-72,2.75,
21:49:00:29,3482,-0.050036   -0.016642    0.010976     -1.4951,0.052856    -0.16956    0.021088,-0.797723      -1.30206      176.1756,-0.49561     0.41138     0.67139,24.80482      121.0498      78.11144,-0.265625     -13.5313    0.0133743,-77,-4.75,
21:49:00:60,3483,-0.05046   -0.015287    0.013301    -0.99852,0.082947    -0.11255    0.035309,-1.434412      -1.82634       174.237,0.42529      2.6328    -0.36694,24.80479      121.0498      77.97191,-0.259033     -13.0547   0.00175953,-77,-7.5,
21:49:00:91,3484,-0.052446   -0.013261    0.022588    -0.99828,-0.35083     0.16724   -0.060699,-2.50613     -1.652953      174.0215,1.0625      3.4316     0.72998,24.80476      121.0498      77.83089,-0.254883     -12.5391  0.000666618,-74,1.5,
21:49:01:22,3485,-0.054302   -0.020949    0.017068    -0.99816,0.11603   -0.098999    0.027161,-1.823971     -2.503185      173.8119,-0.44409      2.9395    0.036774,24.80473      121.0498      77.61257,-0.228638     -11.9219   -0.0412903,-76,-5.25,
21:49:01:53,3486,-0.054052    -0.01607    0.021563    -0.99818,-0.030106     0.22192   -0.020264,-2.369031     -1.972023      173.8417,1.0439      2.8711    -0.46118,24.8047      121.0498      77.44421,-0.208374     -11.3984   -0.0259857,-76,-4.75,
21:49:01:84,3487,-0.05294   -0.019105    0.010466    -0.99836,0.028305    -0.16663    0.012558,-1.082316     -2.249703      173.9505,-0.47827     0.30249    -0.31812,24.80467      121.0498      77.29111,-0.15564     -10.9063   -0.0743408,-77,-5.75,
21:49:02:16,3488,-0.054203   -0.021235    0.022008    -0.99806,0.15137    0.019241  -0.0026226,-2.388177     -2.566165      173.8363,-1.7598      2.2656      2.2109,24.80465      121.0499      77.16129,-0.165161     -10.3438   -0.0321655,-77,-2.5,
21:49:02:47,3489,-0.053699   -0.018379    0.014893    -0.99828,0.37305     0.34692   -0.020737,-1.591949     -2.194624      173.8724,-0.24707       2.082    -0.63184,24.80462      121.0499      77.01875,-0.19006     -9.7813  -0.0012264,-77,-7.75,
21:49:02:78,3490,-0.053379    -0.01836    0.018096    -0.99824,0.17822     0.13477  -0.0058899,-1.959499     -2.211432      173.9161,0.47144     0.33301      1.6719,24.80459      121.0499      76.87798,-0.13013     -9.3047    0.016541,-76,-2.75,
21:49:03:09,3491,-0.054273    -0.02427    0.019774    -0.99804,0.16321     0.11517    0.017426,-2.113747     -2.899871      173.8281,-0.29565      4.2422     -1.3984,24.80457      121.0499      76.75027,-0.10468       -8.75   -0.048645,-76,-4.75,
21:49:03:40,3492,-0.048885   -0.021688    0.011127    -0.99851,-0.14136    0.098694    0.043335,-1.152858     -2.544755      174.4198,-0.1665      2.0078     0.39648,24.80455      121.0499       76.5745,-0.055817     -8.3828   -0.055695,-77,-7,
21:49:03:71,3493,-0.048792   -0.014791    0.016346    -0.99857,-0.062988  -0.0050201   -0.021194,-1.788861     -1.784193      174.4332,-0.66943      1.5293    -0.73584,24.80453      121.0499      76.38899,-0.012573      -7.957   -0.055939,-76,-4.25,
21:49:04:02,3494,-0.052456   -0.014694    0.012252    -0.99844,0.10822   -0.048859  -0.0055046,-1.31423     -1.755085      174.0052,0.94336      2.8555      1.0078,24.80451      121.0499       76.2113,0.0073929     -7.5352   -0.067627,-76,-5.25,
21:49:04:33,3495,-0.053068   -0.019543    0.010575    -0.99834,0.016006   -0.081787    0.038635,-1.091952     -2.300679      173.9364,0.52148      2.0703      1.7012,24.80449      121.0499      76.07207,0.016174     -7.1328    -0.12128,-76,-5.5,
21:49:04:64,3496,-0.051449   -0.015909    0.013351    -0.99846,-0.11743  -0.0089951  -0.0068016,-1.434657     -1.899249      174.1243,0.5166       1.625     0.74268,24.80448      121.0499      75.94211,0.032501     -6.6914   -0.073547,-75,-2,
21:49:04:96,3497,-0.051494   -0.013936    0.011625    -0.99851,0.011574    0.036011  -0.0034237,-1.248579     -1.663345      174.1138,-0.056976      3.9805     0.34863,24.80446        121.05      75.81412,0.021927     -6.1992   -0.034454,-77,-6,
21:49:05:26,3498,-0.057699    -0.01704    0.013155     -0.9981,-0.13574    -0.04718   -0.057373,-1.392936     -2.036378      173.4077,-0.27881     0.95117     -1.3838,24.80445        121.05      75.68185,0.086731     -5.7461     -0.1156,-76,-4.75,
21:49:05:58,3499,-0.057263   -0.025324    0.012127    -0.99796,-0.012924   -0.065735    0.047119,-1.222405     -2.976869      173.4637,0.21265    -0.34888      -1.125,24.80443        121.05      75.54822,0.093689     -5.2617    -0.12402,-75,-1.75,
21:49:05:89,3500,-0.050445   -0.025173    0.013881    -0.99831,0.068787    0.019547    0.029968,-1.444507     -2.961264      174.2519,0.43262      2.8906   -0.056854,24.80442        121.05      75.45854,0.14063     -4.8125   -0.053101,-75,-1.25,
21:49:06:20,3501,-0.044085    -0.02281    0.010654    -0.99871,0.033295  0.00094748     0.03009,-1.10529     -2.665202      174.9707,0.15808      3.3281     0.24622,24.80441        121.05       75.3437,0.16406     -4.4023   -0.022766,-77,-9.5,
21:49:06:51,3502,-0.041522   -0.022778   0.0058578    -0.99886,-0.016144   0.0041618    0.014969,-0.5627209      -2.63597      175.2522,-0.0022335    -0.14868    -0.76074,24.8044        121.05      75.24367,0.224     -4.1836   -0.047821,-76,-5.5,
21:49:06:82,3503,-0.039013   -0.023805    0.010327     -0.9989,-0.04953    0.039948   0.0047722,-1.076936     -2.772066      175.5528,0.2157      1.3955     0.47437,24.80439        121.05      75.11835,0.23853      -3.873   -0.052185,-75,-1.75,
21:49:07:13,3504,-0.033277   -0.022388   0.0073719    -0.99917,0.095093    0.049408    0.060272,-0.7594834     -2.592393      176.2022,1.1328      4.1602     0.77148,24.80438        121.05      75.03097,0.29907      -3.498   -0.068481,-76,-3.5,
21:49:07:44,3505,-0.026541   -0.019746    0.011805    -0.99938,-0.0053596    0.062286    0.088684,-1.293022     -2.297818      176.9834,0.54102     0.99365     -1.0713,24.80437        121.05      74.95712,0.31274     -3.0684   -0.031204,-76,-4,
21:49:07:75,3506,-0.024515   -0.017491    0.012677    -0.99947,-0.25757  -0.0080795    0.039063,-1.403753     -2.039236      177.2149,1.0879     0.51563     0.69043,24.80437        121.05      74.88485,0.3479     -2.4727   -0.054535,-76,-5.25,
21:49:08:230,56481,-7.1729e-17  2.7385e-26  2.4672e-12  1.7873e-34,0.3474121 -9.328127e-05          -862,-180  -0.003331474           180,-8.15625   -0.0829468      -39.625,-2.391130173767341e-23        -13718842769408 -1.819765316213307e-08,371.75   0.009864807 -3.677607e-05,-77,-12.25,
21:49:09:00,3510,-0.0179683044552803  8.069292010632205e+36  8.340761892523868e+17    -0.9996935725212097,-0.0070267 -9.7692e-05   -0.013725,-180  1.419659e-35  1.184467e-17,-0.027237      1.3369    0.026993,24.80436        121.05      74.69669,0.29102    -0.61768    0.036591,-77,-10,
21:49:09:31,3511,-0.018281    0.013439   0.0034092    -0.99974,0.069519   -0.038513  -0.0016098,-0.4188666      1.532686      177.8993,7.4387e-05     -2.0176      0.6377,24.8746681213           31732536      74.6298675537,0.34961    -0.39478    0.010078,-78,-10.25,
21:49:09:62,3512,-2.3013e-31   0.0075216  -0.0027974 -9.5357e-07,0.042236   -0.044891   -0.024414,179.9953    0.01276232     -40.80215,-0.34546     -1.0068    -0.85303,24.8044      89.0583      66.6138,0.32178    -0.41895    0.019791,-77,-9.75,
21:49:09:93,3513,-0.018408   0.0051899  -0.0042786    -0.99981,0.00037313    0.026428   0.0066643,0.47928     0.6036388      177.8929,0.0066223     0.28369    -0.11261,24.80436        121.05      74.51709,0.24841    -0.36646    0.026962,-78,-10,
21:49:10:24,23994,-1.451042139487166e+27   0.009925494901835918  -0.004452325403690338    -0.9997732043266296,-0.0031757    0.042084    0.028671,-7.8384e-28  3.5161e-28  7.8954e-26,-0.027145    0.084351    -0.21582,24.80436        121.05      74.52835,0.21106    -0.34326    0.020126,-78,-10,
21:49:10:86,3516,-0.019301   0.0084867  -0.0048639    -0.99977,-0.0066223   -0.020966    0.030045,0.5385466     0.9830828      177.7927,-0.41235     0.60986    -0.34302,24.80436        121.05      74.44733,0.24341    -0.29736   0.0054855,-76,-10.5,
116:245:11:129,28094,-2.870045867631177e-10   0.002725190483033657 -3.884307709958475e-24 -1.541644164904727e+19,1.1963   -0.024078    0.091553,2.887235e-41  2.025654e-20           180,-0.043060303    -0.55078125          -7948,24.86760330200195          -198212780032       46.2137565612793,0.1416016   -0.01099396        -468.5,-77,-11,
21:53:11:160,40238,2.8071e-16   0.0038285 -2.1149e-08    -0.99978,-0.3894043          -525    0.05209351,2.424053e-06     0.4388096          -180,-0.21216     -0.4707    -0.68408,16.7731  3.55735e-37       79.406,0.1940918    -0.24438477          -7724,-77,-11,
53:34:14:10,3520,-0.01414445415139198          -514533425152  -0.005563501268625259    -0.9997647404670715,-0.03476   -0.020844 -0.00078726,180 -2.226573e-10  1.239045e-12,0.1004     0.87451    -0.43677,-4.57559635244471e+20           519771684864      74.32794952392578,0.21582     -51.9063   -0.0170746,-77,-11.25,
19:241:210:80,19399,-1.194472432488405e-21        -53502780899328   1.81996453497979e-12   -0.01561971567571163,-0.031433  -0.0077209  -0.0075645,180  -3.34541e-14 -3.897976e-24,0.051147461           3628      1.6367188,30.8019   1.5274e-27  6.85921e-25,3194          -8440    -0.70654297,-77,-12,
261:155:220:03,52695,0.02595339715480804 -8.883397067836783e+26 -4.637340098604564e+17    -0.8746045827865601,-0.0022488   0.0058632   0.0050583,-180 -1.128198e-25  5.981946e-08,-14504          -12824     0.011428833,1.2586e-05  -3.454e-15      7.5733,-47296     0.105651855     0.524902344,-77,-12,
21:55:26:123,3810,-0.01042131334543228  2.023963877529436e+34 -0.0002489774487912655 -2.961517427060812e-21,5.6028e-06    0.026184  2.6822e-05,-180  1.676734e-53 -1.409645e-36,-0.49731  0.00085878 -0.00037885,30.83561515808105          -382462689280           151266656256,-0.0573120117     0.111450195          -45280,-77,-10,
21:49:23:03,52515,5.066873318106589e+29 -6.005623776061952e-10 -6.431200016976391e-10    -0.9913298487663269,0.038361      0.1217     -3.5254,-1.3582e-37 -1.4545e-37  -2.242e-28,-0.12354     0.90186    -0.90381,24.80437        121.05 -2.242887e-37,-0.086914     0.11621   -0.015869,-77,-10.25,
21:49:23:34,3556,-0.030504 -0.00011281  -0.0088922 -1.2466e-29,0.0056648    0.017639  -0.0090179,0.463152      32.5039     0.135014,-0.83594   -0.015305      -0.125,3.130751e-28        121.05       74.0871,-5700       0.109375   0.0069618225,-77,-11.25,
96:232:200:19,3566,-2.3331e-11  -0.0097979   -0.008094    -0.99961,0.044769    0.015915    0.041321,0.9279363     -1.123095      179.9909,-0.02157593           670     -1.115234,24.80437        121.05  7.839334e-35,0.0001117    0.021469  -0.0062675,-77,-10.75,
21:49:25:21,3562,-0.02487336099147797   -0.01035194657742977 -2.873149100176285e+36     -0.999601423740387,-0.051727   -0.006897  -0.0029182,180  9.920394e-37           180,-0.58545    0.099365      1.3994,24.80437        121.05      74.08685,-0.096863     0.10168    0.010399,-77,-10.25,
165:50:19:14,3405,-0.025255  9.8693e-15 -2.0284e-31    -0.99958,0.059967  -0.0049858      1.5527,-2.856715e-14  1.130685e-12      177.1054,0.0020313263  -0.0040664673          -6124,30.79882        121.05      44.54754,-0.10889 -0.00043678      1.5527,-77,-10.5,
12:164:180:08,22496,-1.40357967626e-29 -1.92932197995e-10          -34759456        1468573.625,-0.028091 -0.00067806  -0.0050392,-175.1614  2.682456e-17           180,6.0915947e-05    -0.55029297           3884,2.116604157385292e-38         -2075531673600  7.481828573831229e-28,-0.083557   -0.025391   0.0021801,-77,-11.25,
21:49:29:42,15815,-0.56817  1.4869e-19  -5.001e-10  -1.589e-06,-0.0099792  -0.0019646   0.0026245,2.8205e-13  1.0086e-07  0.00032048,0.11023     0.10773     0.27368,24.50743103027344          -519906328576      74.14649963378906,-0.098206    0.086548  -0.0059128,-77,-11.5,
17:244:25:93,23343,-8.824649353050359e+25 -3.788286696912384e-17 -8.372272420002394e+37  1.557109868001204e+37,-122.875         106.125           12376,-158.9285   1.16745e-10          -180,0.19897      -1.998     -2.0586,30.90284729          -11538458  3.67800243758e-34,74.125     -0.39917    -0.265625,-77,-11.5,
21:49:30:98,3532,-1.657306432723999  7.760421494439321e+35  -0.008073225617408752    -0.9996101856231689,0.0062218   -0.010223    0.036163,-180   1.47604e-34 -1.192105e-36,0.41479    -0.94727     -1.5459,1.965204424923329e+30      121.0500030517578              2437027.5,-0.07861328    0.06549072       -379.25,-77,-11.25,
21:49:31:14,3581,-0.025631  -0.0092046  -0.0085244  9.0447e-26,0.0032959   -0.079407    0.045563,43.3666      32.4531      13.2014,-0.60156     0.70703      1.9326,24.80437        121.05      74.11572,-0.065002     0.06604    0.017456,-77,-10.25,
21:49:33:64,20788,1.765307686951322e+16  1.329894111501417e-10  -0.008436381816864014    -0.7496135234832764,-0.022277832           13912    0.0131378174,8.6328e-25 -5.4763e-17  -4.866e-15,-0.0223693848          -13224      1.52441406,416105120           8297594368 -2.3086670217367e-37,-0.00030184    0.037659    0.013184,-77,-11.5,
21:49:37:69,3602,-0.027979   -0.009316   -0.014621    -0.99946,-0.036407      0.0159    0.016754,1.704957     -1.020132      176.7778,-0.47729       -8.25    -0.21619,24.80437        121.05      73.89106,-0.10425    -0.39185    0.013771,-77,-8.25,
21:49:38:00,3603,-0.029229   -0.010765   -0.015413     -0.9994,0.077209   -0.040253   -0.020691,1.801834     -1.181298      176.6309,-1.793     -7.0977    -0.05484,24.80437        121.05      73.87922,-0.10236    -0.77881   0.0036297,-76,-4.5,
21:49:38:31,3604,-0.033829   -0.016504   -0.016192    -0.99916,0.067871    0.093384   -0.028336,1.919228     -1.827146       176.091,0.37622     0.52979     0.94385,24.80437        121.05      73.86834,-0.15869     -1.2363 -0.00051737,-77,-6.75,
21:49:38:62,3605,-0.031204  -0.0054485   -0.016307    -0.99937,-0.11029  -0.0019369   -0.015762,1.887403    -0.5656593      176.4138,-0.15637      1.0674     0.11334,24.80436        121.05       73.8608,-0.19238     -1.8135    0.029343,-76,-5.5,
21:49:38:94,3606,-0.047367   0.0052079   -0.015861    -0.99874,0.046967     0.12341   -0.090637,1.78738     0.6821318        174.58,-0.80762     -3.6934    -0.65918,24.80436        121.05      73.86083,-0.19287     -2.3848    0.032623,-77,-4.5,
21:49:39:25,3607,-0.084723   -0.027752   -0.014616    -0.99591,0.34448    -0.18848   -0.073975,1.94056     -3.026591      170.2237,0.031235     -1.3096      3.0273,24.80435        121.05      73.85573,-0.2832     -3.0098    0.043762,-77,-6.75,
21:49:39:184,34456,0.071175   -0.030974   -0.021276    -0.99676,-0.13062     0.18225     0.18921,2.182584     -3.713956      -171.902,-1.0264     -2.6602     -1.2227,24.80434        121.05      73.86371,-0.56396     -3.7266    0.034912,-77,-5,
21:49:39:199,3712,1.343028552952541e-11 -2.678403453314662e+17   -0.01471832394599915 -2.314871627717707e-10,-0.0055122    0.080994    0.011055,-180 -9.903838e-26  6.297019e-18,0.36206055          -3196       120.5625,4.659652177996243e-11           518080397312  9.538229617706248e-25,-0.42627     -4.3672   -0.019089,-77,-10.25,
21:49:40:19,3610,-0.058064   -0.011329   -0.029768     -0.9978,0.41309    0.048126   -0.020401,3.481788     -1.097389      173.3059,0.65332     -1.8555     0.25195,24.80432        121.05      73.94604,-0.43213     -5.0781     0.14233,-76,-3.25,
21:49:40:50,3611,-0.060665   -0.011108   -0.018795    -0.99792,0.0037804     -0.0672     0.01947,2.227447     -1.139634      173.0202,-1.1494       -1.21      2.2246,24.80431        121.05      74.00356,-0.5083     -5.7578      0.1156,-76,-2.5,
21:49:40:81,3612,-0.060711   -0.003442   -0.013058    -0.99806,0.042999     0.11609   0.0029793,1.517537    -0.3028231      173.0341,-1.209     -2.8262    -0.56006,24.80429        121.05      74.08705,-0.59082      -6.332     0.10962,-77,-3.75,
21:49:41:12,3613,-0.065106   0.0034491   -0.025373    -0.99755,0.33789    0.064026   -0.043915,2.875995     0.5835772      172.5464,-0.039307     -1.3984     0.80322,24.80428        121.05      74.13738,-0.60986     -6.8633     0.10162,-76,-4.75,
21:49:41:43,3614,-0.074388   0.0008633  -0.0011816    -0.99723,-1.1143   -0.092896    -0.11108,0.1276631     0.1087242       171.468,0.42993      1.4941     -2.2949,24.80426      121.0501       74.1935,-0.64893     -7.4453   -0.070129,-76,-2.5,
21:49:41:74,3615,-0.080055    -0.01605   -0.010678     -0.9966,0.56836    -0.11115    0.015083,1.367421     -1.735209      170.7942,-0.15491     0.20801      1.0859,24.80424      121.0501      74.26315,-0.74121     -7.8398     0.13513,-76,-3.75,
21:49:42:05,3616,-0.077316   -0.024792   -0.023728    -0.99642,0.37354  -0.0063667    0.052521,2.933255     -2.621444       171.059,-0.28125     -2.7813    -0.28442,24.80422      121.0501      74.33288,-0.79004     -8.4219     0.14246,-77,-9.5,
21:49:42:68,3618,-0.067252   -0.022482   -0.018248    -0.99732,0.12018   -0.013756    0.015686,2.261373     -2.429432      172.2365,-0.4873     -2.6797    -0.20703,24.80417      121.0501      74.47179,-0.60693     -9.3203     0.11212,-77,-5.75,
21:49:43:30,3620,-0.066569   -0.024623   -0.010787    -0.99742,0.59229   -0.027588    0.033386,1.422556     -2.733096      172.3294,-0.50293     0.39868      2.4824,24.80412      121.0501      74.68317,-0.560547     -10.0625     0.162476,-77,-4.5,
21:49:43:62,3621,-0.061533   -0.019042   -0.029578    -0.99749,0.46729     0.19031  0.00097513,3.519368     -1.968391      172.8795,1.5518     -3.3711      2.2188,24.8041      121.0502      74.80795,-0.544922     -10.4453     0.228027,-76,-1.75,
21:49:43:93,3622,-0.063631   -0.012262   -0.011778    -0.99783,-0.52637    0.029022    -0.06958,1.436625     -1.316283      172.6859,-1.21     -3.4082     -1.9551,24.80407      121.0502      74.90214,-0.42749     -10.8672    0.0828247,-76,-3.5,
21:49:44:24,3623,-0.064748   -0.023027   -0.042632    -0.99672,1.8848   -0.035767    0.037354,5.050828     -2.314423      172.4644,-1.2637     -4.6641      7.2539,24.80404      121.0502      75.04395,-0.385254     -11.1328     0.563965,-76,-5,
21:49:44:55,3624,-0.060622   -0.020864   -0.049267    -0.99673,0.49219     0.19006      0.1593,5.785521      -2.04124      172.9358,-0.88965     -2.5996     -6.3984,24.80401      121.0502      75.19041,-0.4021     -11.4297     0.317139,-77,-8,
21:49:45:49,3627,-0.061789   -0.016353   -0.011064    -0.99789,-0.10938  -0.0017242   -0.011238,1.381813      -1.79193       172.892,-0.46899     -3.1934      3.5469,24.80392      121.0503      75.55556,-0.293701     -12.3125     0.193115,-76,-3.75,
21:49:46:42,3630,-0.062646   -0.023547  -0.0072349    -0.99773,-0.46411  -0.0082779   -0.018784,0.9973198     -2.641123      172.7914,0.9043    0.033325     -2.4766,24.80383      121.0503      76.03191,-0.160278     -13.1563     0.151367,-76,-5.25,
21:49:46:73,3631,-0.062248   -0.023671   -0.015499 -0.00095902,-58368    0.0353088379    0.0115966797,44.068      23.7616      11.4988,0.46411     0.27295     -1.1221,24.80376      121.0503      76.18633,-0.107056     -13.3984     0.209473,-77,-7.25,
21:49:47:05,3632,-0.05965618044137955   -0.02442897297441959  3.418124135895103e+36    -0.9976921677589417,127.875 -0.0008616447    0.06228638,-180 -1.999955e-36          -180,0.75928  -0.0013218     0.83789,24.80376      121.0504      76.37075,-0.0825195     -13.6328     0.229126,-77,-9.25,
53:49:39:180,47477,-6.534719380196785e-12  4.445749143769073e+27 -0.0003236297052353621  5.166713832223015e-26,0.35254     0.16846    0.023453,-180 -1.331748e-51 -8.341729e-30,-0.000126481       27.125   0.00255775,-229074403328      30.25478172302246      76.51914215087891,-0.0441284     -3.18359     -32.1875,-77,-11.75,
21:49:47:98,3635,-0.065439   -0.015074  -0.0036663    -0.99774,0.42041     0.12915   -0.010582,0.532452     -1.696236      172.4871,1.1055      2.6934      1.5801,24.80366      121.0504      76.80769,-0.0409241     -14.1875     0.204834,-76,-5,
21:49:49:55,3640,-0.057931   -0.023139   -0.015192    -0.96656,0.53857     0.19446  -0.0032024,1.959329     -2.624601      173.0953,0.573730469     -1.07421875          -12400,-1.226362411241127e-30               29508764 -5.858289889273321e+24,-18832            3832     0.314208984,-77,-11,
83:147:54:23,19070,-1.993705721237849e+37   -0.01519067212939262  -0.009595789015293121    -0.9981207251548767,-0.11206   0.0068169  -0.0079041,8.7311e-38  5.5153e-38  5.7369e-36,-0.25293     -3.1074      1.3457,24.8034      124.0506      77.80418,0.34082     -15.0703     0.251953,-77,-10.25,
53:57:32:196,51226,1.193161333042153e-22  2.848193945512398e-17  3.318542149492201e+33  4.157124422476954e-08,-15232           -3428      11.3515625,180  4.120069e-54           180,-0.0010099     -1.8252     0.56543,507.5604  4.595681e-28 -1.617005e-37,0.140503     -24.1875      0.30249,-77,-11.75,
175:87:63:10,7471,-0.03162164986133575    0.01212981529533863  -0.003847990650683641 -1.304430214743251e+36,-0.08709717  -0.003061295         858.5,3.380382e-37   1.06558e-36           180,0.371338    -0.545898     -45.1563,-1.119110508440453e+17 -1.397763044351264e-37  1.222597869297848e-14,0.331543     -14.9453     0.217163,-77,-11,
20:50:26:80,3824,0.003705688519403338  6.325743066237672e+23              247956848  1.923757804049019e-16,0.12769     0.99023   -0.013756,180 -3.458596e-38  4.491767e-14,-0.28687      2.1504     0.50049,14.75290585     -183125.3594   1.26939073e-27,-0.18811      16.2813     0.194458,-77,-10.5,
21:54:19:120,23470,5.088797680004432e+25 -6.044024044867528e+27  -1.63065949632113e-10 -1.152451072543949e+16,0.00011456   0.0098114   0.0012827,-179.0352 -2.184833e-10 -1.839531e-12,-1.4404     -2.4043      4.2852,24.80379     -121.1122 -3.695891e-13,-36.6875     -1.1455078           1217,-77,-11.75,
21:50:22:21,3745,1.12678262667032e-05 -4.468869957514661e+37  1.977547308955127e+19  -0.004753808956593275,0.449707      43.8438 -0.000124574,-180  -1.21898e-38 -5.070862e-17,-1.37109     -0.47168      -47.875,21932531712       -541066658840576  6.212362115378487e+30,0.195801      15.5156    -0.151123,-78,-9.75,
21:50:30:83,3747,0.9965779781341553 -1.931168681575385e+27 -3.815135657326219e+28   -0.08030934631824493,-1.4043    -0.15906   -0.036285,180 -2.997854e-27      174.2045,-0.53906     -5.6563    -0.99316,24.8042336      121.050171      11507.6436,0.00032187    0.045044    -0.43848,-77,-9.75,
21:50:24:69,3753,0.99679   -0.012466   -0.018023   -0.076989,8.1301e-05    0.079102    0.013672,-1.266     -2.1692     -8.8091,-0.9165     -3.1602     -1.5195,24.80447        121.05      77.09729,0.380859      15.4219    -0.339355,-77,-9.25,
70:49:74:32,3755,0.99714  -0.0016006  -0.0080919   -0.075182,0.018616    0.061493   -0.014557,-0.11319    -0.93844     -8.6227,-0.38208     0.71631     -1.6455,12.902271271           7933133      76.944885254,0.372559      15.4922    -0.209839,-77,-5,
21:50:25:62,3756,0.9969719648361206  -0.007279239594936371  -0.007599547039717436 -1.439512330354172e+35,0.15198    0.012772    0.026672,6.049576e-36 -5.794597e-36          -180,-0.23853      -1.749      0.3916,24.80458     -125.0491      127.8806,0.405273      15.4453    -0.229004,-77,-6,
21:52:19:57,28271,0.99684292  1.4592407e-13  -0.0050060665      2591.6326,0.43896     0.39648    -0.01458,-0.0002213481 -8.513911e-08      179.9559,0.219604492           7.125           26320,24.93068885803223        12002.505859375  4.307917395454625e+30,0.53076172      3.7949219          -6032,-77,-6,
21:50:27:18,3761,0.99653   -0.010472  -0.0084489   -0.082128,-0.40527    0.021194   -0.019623,-1.1165     -1.0634     -9.4123,-657   -0.08270264     -3.416016,24.80477      121.0499  5.768918e-35,0.916504      15.3203    -0.141968,-77,-7,
21:50:27:49,3762,0.99638   -0.006661   -0.017687 -1.2044e-06,-33.6875    -0.131836   0.00817871,-0.76629     -2.0339    0.013464,0.10736     -0.3833     0.57764,12.402466774           25310574      76.6221084595,0.530762      15.2578   -0.0686035,-77,-7.5,
119:52:158:180,52137,2.976559429503585e+26  -0.004154659807682037  -0.009098593145608902  2.384460805860047e+30,-37152     0.182128906   0.00807189941,-4.372818e-31  1.996086e-31      179.9857,0.93506     0.90039     -1.5908,12.4054  8.25019e-23      76.5176,0.535156      15.1016     -0.11554,-77,-8.5,
21:50:29:36,3768,0.99645   -0.010347  -0.0042707    -0.08346,-0.12024   -0.012619   -0.017838,-1.1408    -0.58662     -9.5698,0.35767     -9.5938      1.8154,3.130836e-28      121.0497      76.39142,0.59521484      15.148438           3792,-77,-8.75,
21:50:29:98,3770,0.99599    -0.02305  -0.0058344   -0.086238,-0.45947    -0.13733   -0.011963,-2.5743    -0.89371     -9.8772,-0.35986     -1.5537      2.3457,24.8051 -1.39652e-37      76.2748,0.0033131     0.04068 -0.00079775,-77,-11,
21:50:30:91,3773,0.99582   -0.025021  -0.0046435   -0.087748,-0.38916   -0.052551   -0.011909,-2.80994    -0.781504     -10.0522,-0.81396     -5.6367     -5.6055,24.80522      121.0496      92.13139,0.525879      13.3281    -0.187988,-77,-8.25,
21:50:31:22,3774,0.9959906339645386   0.003467969596385956   2.81128797673674e+20 -1.126438902692416e-30,0.1864    -0.22375     0.02037,180   4.05978e-19           180,-0.0015917      0.4563      7.1211,3.130863e-28      121.0496      76.03941,0.526855      13.0156   0.00845337,-77,-7.75,
21:50:31:53,3775,0.99578   -0.016425   -0.011608    -0.08953,-0.31006    0.033875   -0.020782,-1.75598      -1.4933     -10.2523,-0.29883     -1.8135     -2.2988,24.80528      121.0496       75.9584,0.5625       12.109375           22432,-77,-8.75,
21:50:32:16,3777,0.99593  -0.0068249     -0.0125   -0.089052,-0.22144    -0.11438    0.021133,-0.651566     -1.49641     -10.2107,0.18994    -0.80518     -2.3574,24.80535      121.0496       75.7997,0.494629      12.5938    -0.118958,-75,-2.5,
21:50:32:46,3778,0.9959889054298401 -0.0008106790482997894        -76751963160576   -0.08798221498727798,0.01799   -0.046844    0.009613,180 -1.487023e-12           180,-0.49365      1.3428     -1.8057,24.80538      121.0496      75.72732,0.49585      12.5391   -0.0358276,-77,-5.75,
21:50:32:78,3779,0.9962  -0.0090072   -0.017339   -0.084845,0.3269    0.030075   -0.034332,-0.86024     -2.0674     -9.7205,-0.59375     0.23145      -1.542,24.80541      121.0495      75.67706,0.481445      12.3672   -0.0721436,-77,-7,
21:50:33:09,3780,0.99638  -0.0071894   -0.012998   -0.083752,0.049683    -0.20386    0.024246,-0.69638     -1.5533     -9.6002,-0.8374      1.1602      2.8828,24.80544      121.0495       75.6101,0.455322      12.3984    -0.102234,-75,-1.25,
21:50:33:40,3781,0.99628    -0.01324   -0.013008   -0.084212,-0.21277    0.073181  -0.0052681,-1.3867     -1.6131     -9.6435,0.074341     0.75781       2.002,24.8054714      121.049507      28597.9707,15.8594      10.3828   0.00297737,-77,-11,
21:50:33:71,3782,0.99649  -0.0058689   -0.016126   -0.081979,0.1405   -0.011871    0.023468,-0.51896     -1.8968     -9.3975,0.81787   -0.078125       1.501,24.8055      121.0495      75.51212,-5.8555    0.044586     0.55713,-77,-10.75,
21:178:170:98,39111,1.1996e-35   -0.013353  -0.0051783   -0.081396,-0.2229    0.019348    0.020508,7.480382     -18.55721      178.7762,-0.27612    -0.90088      4.7539,24.80553      121.0495      75.45847,0.484619      12.4453    -0.238892,-77,-7.5,
96:98:46:45,3784,0.99653    -0.00168   -0.010363   -0.082603,0.24158   -0.070313  -0.0080795,-0.093772     -1.1994      -9.476,1.4795      1.0586    -0.41406,-24.80556      121.0495      75.37884,0.475342      12.3516   -0.0546875,-75,-0.75,
21:50:35:26,3787,0.99655   0.0084516  -0.0095542   -0.082048,0.07019     0.15967   -0.016449,1.0552     -1.0116     -9.4227,0.89209      2.7949      -3.166,24.80566      121.0494      75.20505,0.558105      12.4688   -0.0671387,-77,-7.75,
21:50:35:57,3788,0.99644  -0.0039466   -0.013264   -0.083128,-0.20203    -0.17786    0.012321,-0.32441     -1.5523     -9.5333,0.11688     0.44824     -2.6465,24.80569      121.0494        75.145,0.57959      12.5859   -0.0581055,-77,-7.25,
21:50:35:89,3789,0.99656  -0.0039682  -0.0085209   -0.082398,0.067261    0.047577  -0.0086365,-0.37276     -1.0106     -9.4499,-1.0518    -0.52686     -4.0273,24.8057 -2.51701e-37      75.1133,0.592773      12.5469    -0.017746,-76,-2.75,
21:50:36:20,3790,0.99654  -0.0078843  -0.0041991   -0.082605,-0.22803    0.050812   -0.028107,-0.86067    -0.55416     -9.4728,-0.15283     -0.2981     0.56689,24.80575      121.0494      75.05817,0.613281      12.5938   -0.0701904,-76,-3.5,
21:50:36:51,3791,0.99628  -0.0055549  -0.0096771   -0.085428,0.24805   -0.057373    0.021194,-0.53956     -1.1592     -9.7964,0.75635    -0.80176      3.9297,24.8058      72.7368      75.0093,0.632813      12.5625   -0.0514526,-73,0.25,
21:50:36:82,3792,0.84002 -4.7483e-08   -0.013211   -0.085284,-0.0042   -0.018463    0.016617,0.181136     -1.78361     -11.5971,-0.50635     -1.3066      1.9063,24.80581      121.0493      74.97063,0.672363      12.6484   -0.0188751,-70,3.5,
21:50:37:13,3793,0.99633  -0.0032102   -0.013409   -0.084464,0.2052     0.13599  -0.0057869,-0.23682     -1.5621     -9.6881,-0.26074       1.084      1.8809,24.80584      121.0493       74.9829,0.650391      12.6563    0.0110474,-73,0.75,
21:50:37:44,3794,0.99648  -0.0023549   -0.015429   -0.082329,0.12457   -0.024551    0.024414,-0.1234     -1.7843     -9.4441,0.96582     0.19385     0.93506,24.80588      121.0493      74.93179,0.643555      12.6641    0.0262146,-74,0.25,
21:50:37:75,3795,0.9965  0.00020757 -2.1896e-07   -0.082697,0.057922    -0.13184   -0.016098,0.023708   0.0019423      -9.488,-0.18176       2.332    -0.79932,8.6529541015625           2030869760      74.918838500977,0.603516      12.7422   0.00626755,-74,-0.25,
21:50:38:06,3796,0.99649  -0.0013818     -0.9281   -0.082429,0.15967    0.031143   0.0071678,47.3485     -83.6983     -52.3356,-183.625          -4332      -1.296875,24.80594      121.0493      74.88622,0.60791      12.7344   -0.0198975,-75,-3.25,
21:50:38:37,3797,0.99679   0.0014795   -0.015663   -0.078446,-0.015038    0.041321    0.019089,0.30994     -1.7761     -9.0045,0.375    -0.10187     -1.5049,24.80597      121.0492        74.863,0.636719      12.7734   -0.0462341,-72,2.75,
21:50:38:69,3798,0.99689  -0.0069097  -0.0083926   -0.078053,-0.057373    0.018539    0.025391,-0.71439     -1.0206     -8.9475,0.24121      -0.604     -1.0234,24.806      121.0492      74.79881,0.612305      12.7031    -0.117676,-71,3.75,
21:50:39:00,3799,0.99677  -0.0086312  -0.0023656   -0.079803,0.054596   -0.036926  0.00089359,-0.9643    -0.34914      -9.152,-0.34692     0.24939      0.3501,24.80604      121.0492      74.76241,0.580078      12.4453    -0.123718,-74,-0.25,
21:50:39:31,3800,0.99642   -0.015415  -0.0053676   -0.082973,0.11945     0.14001   -0.028412,-1.7095    -0.75947     -9.5089,0.11255   -0.019577      1.3994,24.80607      121.0492      74.72211,0.612305      12.1484    -0.147949,-72,2.75,
21:50:39:62,3801,0.9963   -0.016407   -0.011726   -0.083559,-0.0979   -0.084351    0.011536,-1.7618      -1.496     -9.5653,-0.2251    0.032776        1.71,24.8061      121.0492      74.69517,0.570801      11.9297     -0.11853,-69,4,
21:50:39:93,3802,0.9963  -0.0020258    -0.01846   -0.083889,0.00098896    0.067627   -0.026062,-0.053868     -2.1275      -9.625,0.20276    -0.21057     -2.2598,24.80613      121.0492      74.66782,0.533691      11.8125     -0.06427,-72,2.5,
21:50:40:24,3803,0.99653  -0.0016306    -0.02458   -0.079497,-0.16418   -0.093933    0.081665,0.037759     -2.8229     -9.1231,1.4697   -0.041077     -4.0352,24.80616      121.0491       74.6263,0.485596      11.6719    -0.120972,-71,3,
21:50:40:55,3804,0.99691  -0.0094976   -0.012091  -0.0047688,-0.13831    0.048401    0.007164,-1.0852     -1.3948    -0.53495,-0.79443     0.39502      3.4238,24.80619      121.0491      74.57646,0.42334      11.5781     -18.5156,-76,-5.25,
21:50:40:86,3805,0.99701  -0.0037218   -0.017183   -0.075294,0.36987   -0.086975    0.037262,-0.27712     -1.9956     -8.6327,0.34692     0.19397      1.5537,24.80622      121.0491        74.547,0.37793      11.3281   -0.0198822,-72,1.25,
21:50:41:17,3806,0.9971  -0.0061648   -0.013467   -0.074615,-0.32349    0.062286   -0.028259,-0.58948     -1.5917     -8.5509,-0.22778     0.46631    -0.14368,24.80624      121.0491      74.50648,0.344482      11.1875   -0.0502014,-69,3.75,
21:50:41:48,3807,0.99714   -0.014078   -0.011605   -0.073356,0.1217    -0.14917    0.036926,-1.5117     -1.4445     -8.3959,0.071228    -0.43213    -0.71045,24.80627      121.0491      74.45374,0.2734375           44480   -0.0298309326,-75,-2.5,
21:50:41:80,3808,0.9975   -0.010878  -0.0065759   -0.069507,-0.090942    0.063171    0.004837,-1.1912    -0.83834     -7.9633,0.97168     0.53125     0.64307,24.8063      121.0491      74.38531,0.297363      10.6016    -0.112732,-70,3.25,
21:50:42:11,3809,0.99738    -0.01169  0.00062261   -0.071413,0.072693     0.15198   -0.016098,-1.3412   -0.024502     -8.1906,-0.031586      1.6445     0.87842,24.80632       121.049      74.33583,55.5938      28.6406   -0.0671997,-74,-1.5,
21:50:42:42,3810,0.99701   -0.013697  0.00086054   -0.076051,0.098511    0.032532   -0.056854,-1.5726   -0.021052     -8.7237,-0.5791     -1.9619      1.4502,24.80635       121.049      74.26401,0.270508      10.0547   -0.0304871,-67,4.75,
21:50:42:73,3567,0.99691  -0.0084708  -0.0013859 -9.8501e-31,0.31299   -0.097107  -0.0096664,-0.97367    -0.15929   0.0013535,-1.8018    -0.88477     -2.2988,24.80735      121.0412  2.444891e-18,0.28345      9.7656      1.6777,-65,4.25,
21:50:43:04,3812,0.99682  -0.0090922  -0.0033006    -0.07912,-0.12939    -0.10626   -0.023499,-1.0087    -0.45945     -9.0724,0.75195    -0.81689     -3.4473,24.8064       121.049      74.10914,0.29834      9.5313   -0.081787,-71,2.25,
21:50:43:35,3813,0.99663   -0.014596  -0.0044296   -0.080625,-0.050781    -0.15442   -0.010307,-1.6263    -0.64074      -9.241,0.88672    -0.81934    -0.52783,24.80642       121.049      74.02232,0.29736      9.2188   -0.093567,-69,4,
21:50:43:66,3814,0.99653  -0.0081372  -0.0061518   -0.082568,0.26855    -0.13501  -0.0026646,-0.87113    -0.77951     -9.4669,-0.11639     -1.1855      1.2129,24.80645       121.049      73.92992,0.29834      8.9375   -0.070068,-66,5.25,
21:50:43:97,3815,0.9965  -0.0098401  -0.0026882   -0.083028,0.089233    0.019394   -0.013931,-1.0982    -0.40059     -9.5219,-0.93164     -3.5938     -2.9785,24.80647       121.049      73.87244,0.32324      8.7109   -0.015427,-64,5.5,
21:50:44:28,3816,0.99627   -0.013576  0.00016948   -0.085185,-0.54688   -0.044403   -0.058105,-1.5518    -0.11318     -9.7727,-1.6689      -3.248     -1.3398,24.80649       121.049      73.82208,0.31519      8.4219     -0.1203,-67,5,
21:50:44:59,3817,0.99596   -0.018061 -0.00072271   -0.087919,0.10284    0.069031   0.0050697,-2.05448    -0.264445     -10.0847,-0.70068     -3.3379     -2.8574,24.80651      121.0489      73.77396,0.3728      7.9766   -0.082764,-57,6.5,
21:50:44:91,3818,0.99577   -0.009949  -0.0026901   -0.091302,-0.19861   -0.047058   -0.017059,-1.1072    -0.411056     -10.4736,0.33301     -2.0391     -3.0352,24.80653      121.0489        73.693,0.32593      7.6484     -0.0802,-71,3.25,
21:50:45:22,3819,0.9957    -0.02022   0.0002802   -0.090385,0.11639    0.045563     0.03009,-2.31058    -0.177453     -10.3701,-0.28589     -1.8721     0.14636,24.80655      121.0489      73.64501,0.36987       7.125    -0.03833,-65,5.5,
21:50:45:53,3820,0.99568   -0.011952    0.009681   -0.091555,-0.13135    0.067749   -0.030701,-1.46566     0.979218       -10.52,-0.18982     -2.3438       1.043,24.80657      121.0489       73.5728,0.35645      6.6758   -0.054932,-58,5.75,
21:50:45:84,3821,0.99459    -0.01773    0.013209    -0.10154,-0.040283    -0.04425   -0.052338,-2.17551      1.29919     -11.6837,-0.15076     -3.4941     -1.1846,24.80658      121.0489      73.49019,0.36938      6.1914    -0.10455,-61,6.5,
21:50:46:15,3822,0.9935    -0.01625    0.012017    -0.11198,0.012901    0.077087   -0.095642,-2.00506      1.15969     -12.8819,0.056915     -1.4619      1.2813,24.8066      121.0489      73.40714,0.41895      5.6836   -0.054596,-53,6.25,
21:50:46:46,3823,0.99218     -0.0222    0.010709     -0.1224,-0.13953  -0.0084457   -0.029709,-2.67551     0.906281     -14.0862,-0.58496     -3.5879    -0.83984,24.80661      121.0489      73.34524,0.44824      5.1797    -0.11371,-59,6.25,
21:50:46:77,3824,0.99156   -0.015238    0.016366    -0.12774,-0.13928   0.0065384  -0.0093613,-1.97213      1.63669     -14.7102,0.63037     0.44409      1.2188,24.80663      121.0489      73.28065,0.4436      4.6602   -0.060272,-57,6.25,
21:50:47:08,3825,0.98935   -0.016209    0.025128    -0.14248,0.10834   -0.042816    -0.21216,-2.2507      2.58496     -16.4408,-1.5596      -2.127    -0.48828,24.80664      121.0489      73.22041,0.33813      4.0391   -0.055634,-57,6,
21:50:47:39,3826,0.98328   -0.018752  -0.0057608    -0.18103,-0.049683    -0.27319    -0.21973,-1.99407     -1.03816      -20.846,-0.16748     -1.4658      1.6016,24.80665      121.0489      73.15652,0.36523      3.7422   0.0012798,-59,6,
21:50:47:70,3827,0.98231   -0.027255   -0.032485    -0.18239,-0.045624    -0.23083    0.093201,-2.39618     -4.23019     -20.9489,-0.30713     -1.7412    -0.70313,24.80666      121.0489      73.11623,0.40479      3.4004   -0.060974,-54,6,
21:50:48:01,3828,0.9859   -0.026964   -0.043722    -0.15924,0.095886    -0.14563      0.2168,-2.25919     -5.43969      -18.243,-1.918     -3.4277      1.7422,24.80667      121.0489      73.04011,0.25293      3.1133   -0.011253,-57,6.25,
21:50:48:32,3829,0.9907   -0.015973    -0.05042    -0.12536,-0.04895    0.051941      0.2157,-1.09504     -5.96419      -14.366,0.17981     0.32788     -1.3848,24.80667      121.0489      72.97662,0.16309      2.8867    -0.01384,-57,6.75,
21:50:48:64,3830,0.99628  -0.0084936    -0.03718   -0.077329,-0.15881     0.10638     0.26367,-0.64205      -4.324     -8.8523,-1.8281     0.81787    -0.85352,24.80668      121.0489        72.911,0.007843       2.832   -0.027512,-52,6.25,
21:50:48:94,3831,0.999   -0.010788   -0.019079   -0.038858,-0.021164     0.08374     0.22864,-1.151     -2.2327     -4.4326,-0.875     -2.3633     -0.4939,24.80668      121.0489      72.85561,-0.12109      2.6836    -0.04425,-53,6,
21:50:49:26,3832,0.99928  -0.0096303   -0.017413   -0.032182,-0.12939   -0.038544  0.00014019,-1.0393     -2.0298     -3.6707,0.7002     0.65967    -0.31128,24.80669      121.0489      72.79473,-0.22522       2.582   -0.054169,-46,7,
21:50:49:57,3833,0.99942    -0.01537   -0.011138   -0.028122,-0.033661     0.12427    0.029999,-1.7251     -1.3252     -3.2036,0.15723      1.3555      1.1436,24.8067      121.0489      72.72783,-0.088318      2.3711   -0.044678,-42,5.75,
21:50:49:88,3834,0.99967   -0.009778    0.021532  -0.0098395,0.037689     0.22632    0.030991,-1.1455      2.4563     -1.1524,0.61914    -0.61963     -1.9961,24.8067      121.0489      72.67686,-0.042969      2.1816   -0.072998,-44,5.75,
21:50:50:19,3835,0.99829  -0.0091231    0.036702   -0.044673,-0.18787    -0.11542    -0.39575,-1.2349      4.1555     -5.1693,-0.35938    -0.42773     0.30542,24.80671      121.0489      72.68051,-0.13318      2.0684   -0.021667,-52,6.5,
21:50:50:50,3836,0.99072   -0.011487   0.0013398    -0.13539,-0.06665    -0.29199    -0.61768,-1.32503   -0.0261141     -15.5634,1.3721     0.35303    -0.15808,24.80671      121.0489       72.6384,-0.028336      2.0059   -0.030655,-45,6.5,
21:50:50:81,3837,0.9831   -0.017036   -0.026611    -0.18032,-0.072937    -0.16541    -0.14783,-1.37185     -3.35177     -20.7473,0.5918    -0.48633     -1.7734,24.80672      121.0489      72.60764,0.21619      1.8613   -0.039917,-48,6.5,
21:50:51:12,3838,0.9846   -0.015273   -0.040227    -0.16943,0.086182    -0.12646      0.2124,-0.945648     -4.84101     -19.4877,0.23877     0.36938    0.086182,24.80672      121.0488      72.55599,0.18469      1.5537  -0.0044861,-57,6.5,
21:50:51:43,3839,0.99162   -0.021745   -0.040041    -0.12087,0.059479   -0.047394     0.38281,-1.92364     -4.85688      -13.817,-0.92773      -2.793     0.33936,24.80672      121.0488      72.52574,0.045898      1.3516   -0.015884,-55,6,
21:50:51:74,3840,0.99802  -0.0086921   -0.035143   -0.051519,0.037689    0.094299     0.45337,-0.78862     -4.0738      -5.882,0.28955    -0.95166     -1.5732,24.80673      121.0488      72.49384,-0.042023       1.166    -0.02803,-48,6,
21:50:52:05,3841,0.99964   -0.010566   -0.014961    0.019522,-0.15173     0.19678     0.44385,-1.2445     -1.6904      2.2559,-0.15576     -2.5293     -1.3125,24.80673      121.0488      72.44085,-0.021057      1.0078   -0.045746,-45,6,
21:50:52:36,3842,0.99724  -0.0044809    0.012282    0.073044,0.073547     0.17822     0.26123,-0.40939      1.4412      8.3732,0.14502    -0.76074   -0.048309,24.80673      121.0488      72.42519,-0.0062408     0.73975  -0.0059586,-44,1.75,
21:50:52:67,3843,0.99517  -0.0062578    0.027495    0.094062,0.006485    -0.03418   -0.058441,-0.417913      3.20462      10.7873,-0.66113     0.22339    -0.13013,24.80673      121.0488      72.44918,-0.16858     0.44995    0.063782,-41,6.5,
21:50:52:99,3844,0.99546  -0.0051139    0.019386    0.093009,0.092468   0.0080872   0.0067215,-0.377032       2.2665      10.6681,0.094849      -1.666    -0.56348,24.80673      121.0488      72.42392,-0.10547     0.27563  0.00070429,-41,6,
21:50:53:30,3845,0.99548  -0.0065951    0.013884    0.093678,0.051025  -0.0065384   -0.018784,-0.603555      1.65478       10.743,-0.067261    -0.39404     0.33447,24.80673      121.0488       72.3911,-0.045441    0.092041    0.012062,-43,6.25,
21:50:53:61,3846,0.99553  -0.0009101   0.0054129    0.094294,0.016418    -0.06842  -0.0031357,-0.0453378     0.627349      10.8213,0.45776     0.47266    -0.27173,24.80673      121.0488      72.37128,-0.06311    0.097961  -2.104e-05,-47,6.5,
21:50:53:92,3847,0.99553  -0.0021197  0.00032218    0.094384,-0.0029793   0.0059242   0.0076447,-0.238332    0.0596801      10.8316,0.40967    -0.83252    -0.26123,24.80673      121.0488       72.3475,0.0086288    0.079956    0.011795,-42,6.5,
21:50:54:23,3848,0.99557  -0.0012739  -0.0011044     0.09406,0.011116  -0.0055504    0.021957,-0.157234    -0.112258      10.7946,0.047546    -0.18494    -0.75928,24.80673      121.0488      72.35538,0.010437    0.077148    0.010887,-39,5.25,
21:50:54:54,3849,0.99554  -0.0002868  -0.0050386    0.094222,0.027023   0.0006814    0.014992,-0.0871245    -0.571721      10.8137,0.22253     0.49658    -0.72559,24.80673      121.0488      72.31404,0.024506    0.059357   -0.012917,-39,6,
21:50:54:85,3850,0.99553  0.00011288   -0.006011    0.094305,-0.031708    0.013496   0.0020676,-0.0520857    -0.686969      10.8231,1.2148     -1.3965     -1.5703,24.80673      121.0488      72.28479,0.083191    0.053558   -0.011482,-38,6.5,
21:50:55:16,3851,0.9955 -0.00056608  -0.0011894    0.094724,0.099121    0.030533   -0.024582,-0.0774869    -0.129537       10.871,0.087708    -0.64014   0.0047264,24.80673      121.0488      72.25955,0.12573    0.025879  -0.0036068,-38,6,
21:50:55:47,3852,0.99555  0.00020382 -0.00099617    0.094258,-0.01091     -0.0354 -0.00011116,0.012492    -0.115846      10.8173,-0.10474     -1.0557     -1.2139,24.80673      121.0488       72.2824,0.059723     0.01799   -0.014328,-39,6,
21:50:55:78,3853,0.99546  0.00031007    -0.01071    0.094596,-0.0027866   -0.026779  -0.0036736,-0.080739     -1.22511      10.8576,-0.40454          -1   -0.071777,24.80673      121.0488       72.2543,0.075378  -0.0069351   -0.034332,-38,6,
21:50:56:09,3854,0.99541   0.0016891   -0.014873    0.094576,0.049927   -0.012856   -0.016312,0.0315002     -1.71502      10.8545,-0.28711     0.91162    -0.97461,24.80673      121.0488      72.22282,0.12109   0.0040894   -0.033905,-38,6,
21:50:56:41,3855,0.9954  0.00044332   -0.014747    0.094643,-0.038391    0.029709     0.02446,-0.109412     -1.68712      10.8644,-0.21094      1.7578     0.34839,24.80673      121.0488      72.23193,0.14709    0.013046  -0.0050659,-39,5.5,
21:50:56:72,3856,0.99543   0.0009484   -0.013089    0.094619,-0.040131    0.029541    0.011505,-0.0337526     -1.50352      10.8602,-0.48145    -0.74805    -0.27197,24.80673      121.0488      72.27007,0.151   -0.018417    0.015396,-39,6,
21:50:57:03,3857,0.99541   0.0011354   -0.011821    0.094927,0.015472   0.0013828   0.0045242,0.000928245     -1.36081       10.895,1.4482    -0.95459     -1.1514,24.80673      121.0488       72.2626,0.16479   -0.018433    0.019241,-38,6.75,
21:50:57:34,3858,0.99541   0.0010874   -0.013461    0.094744,0.015884   -0.015717   -0.048187,-0.0221219     -1.54749      10.8745,-0.85938      1.3438       0.448,24.80673      121.0488      72.25382,0.15918   -0.023163    0.018661,-38,6.25,
21:50:57:65,3859,0.9954   0.0013432   -0.012395    0.095005,-0.037872    0.030045     0.02977,0.0182833     -1.42854      10.9038,0.13367       1.082    -0.35278,24.80673      121.0488      72.25059,0.19531   -0.020126   0.0061111,-39,6,
21:50:57:96,3860,0.99543  0.00018803  -0.0095277    0.094999,0.015343     0.03894  -0.0066719,-0.0822862     -1.08892      10.9038,-0.1759      1.3057    -0.65381,24.80673      121.0488      72.26898,0.19739   -0.029037   0.0025635,-38,6,
21:50:58:27,3861,0.99544  0.00018558  -0.0079035    0.095065,-0.030731    0.014465  -0.0030422,-0.0649377    -0.903606      10.9109,-0.024384     0.44873     -1.1172,24.80673      121.0488      72.27359,0.20105   -0.041931    0.011932,-38,6.25,
21:50:58:58,3862,0.99544 -0.00030277   -0.006389     0.09518,-0.017303   -0.027206  -0.0031567,-0.104229      -0.7255      10.9243,-0.03186      1.6553   -0.010742,24.80673      121.0488      72.26186,0.20935   -0.047455  -0.0089493,-38,6.25,
21:50:58:89,3863,0.99544  0.00035169  -0.0064026    0.095211,0.011017  -0.0031071    -0.01239,-0.02974    -0.734196      10.9273,-0.1676     -0.4209   -0.078491,24.80673      121.0488      72.24156,0.21252   -0.057159   -0.018295,-38,5.5,
21:50:59:20,3864,0.99542  0.00091466   -0.006608    0.095397,-0.049377  -0.0025005   -0.015602,0.0320983    -0.763774      10.9484,-0.63916      1.1621    -0.66113,24.80673      121.0488      72.27956,0.19983   -0.056183  0.00020325,-38,6.25,
21:50:59:51,3865,0.9954   0.0011032   -0.006974    0.095526,-0.010414  -0.0082169   -0.018784,0.0494955    -0.807586      10.9631,0.47974     -1.2051    -0.52881,24.80673      121.0488      72.26337,0.21509   -0.069397   0.0054703,-39,6.5,
21:50:59:82,3866,0.99539  0.00045272  -0.0079108    0.095564,-0.034393   0.0071449    0.036865,-0.0349951    -0.907327      10.9682,0.26733    -0.65479     0.14636,24.80673      121.0488       72.2484,0.21826   -0.076294     -0.0084,-37,6.5,
21:51:00:14,3867,0.99539 -6.1542e-06  -0.0087488    0.095536,-0.046143 -0.00023413     0.02121,-0.0964952    -0.997903      10.9656,0.01561     0.93164     0.97705,24.80673      121.0488       72.2605,0.21619   -0.064331    0.005909,-37,6,
21:51:00:44,3868,0.99533   0.0011555   -0.009724    0.096051,0.010612   0.0021305   -0.034058,0.0247697     -1.12187      11.0239,-0.22205     0.70264    -0.78125,24.80673      121.0488      72.29085,0.20081   -0.063538    0.014999,-38,6.25,
21:51:00:76,3869,0.99532    0.001438   -0.010125      0.0961,0.0014095   -0.011307   -0.022842,0.0525275     -1.17068      11.0293,0.0063782   -0.047607     0.22754,24.80673      121.0488      72.27591,0.21387    -0.07489  -0.0025177,-38,5.75,
21:51:01:07,3870,0.9953  0.00075196    -0.01111    0.096176,-0.024414  -0.0074005   -0.022842,-0.0366832     -1.27547      11.0391,0.062073      1.1836     0.13098,24.80673      121.0488      72.26234,0.21289   -0.067688   -0.012306,-40,6.75,
21:51:01:38,3871,0.99528  0.00082013   -0.012732    0.096248,-0.0018129   -0.016998   -0.042542,-0.0469028     -1.46129      11.0478,-0.50098      0.6167    -0.81689,24.80673      121.0488      72.24469,0.19739    -0.07019  -0.0052795,-42,6,
21:51:01:69,3872,0.99527  0.00083834     -0.0142    0.096147,-0.0065346   0.0081711    -0.01976,-0.0608621     -1.62893      11.0367,-0.28442    -0.33691     0.42578,24.80673      121.0488      72.27847,0.20178   -0.077454 -0.00051403,-44,6,
21:51:02:00,3873,0.99528  7.2561e-05     -0.0133    0.096174,-0.049103    0.015976    0.021027,-0.138349     -1.51785      11.0406,0.51563     -1.0439   -0.095398,24.80673      121.0488      72.25443,0.23962   -0.082947  -0.0091934,-41,-0.75,
21:51:02:31,3874,0.99528  0.00062992   -0.012598     0.09623,0.050812  -0.0034485    0.035217,-0.0671028     -1.44395       11.046,-0.12134    -0.85596       2.373,24.80673      121.0488      72.22559,0.22412   -0.077209   0.0038624,-43,6.25,
21:51:02:62,3875,0.99524  0.00030109   -0.012424    0.096695,-0.038818    -0.01709   -0.030975,-0.103359     -1.42041      11.0999,-0.26099     0.56299     0.21631,24.80673      121.0488      72.21881,0.21777   -0.071777   -0.015991,-44,6.5,
21:51:02:93,3876,0.99524  0.00013948   -0.011782    0.096691,-0.03717   0.0066833   0.0040779,-0.114666     -1.34535      11.0994,-0.18909    -0.93701     0.11713,24.80673      121.0488      72.24048,0.20154   -0.076904  -0.0091476,-44,6,
21:51:03:24,3877,0.99524 -8.1394e-05   -0.011613    0.096717,0.0045853   0.0064888    0.013702,-0.138028     -1.32366      11.1026,0.02713     -1.0576       1.708,24.80673      121.0488       72.2302,0.2113   -0.072083   0.0045624,-42,6.25,
21:51:03:55,3878,0.99521  0.00036301   -0.011496    0.097055,-0.019012  -0.0067749   -0.038391,-0.0864801      -1.3152       11.141,0.30298    -0.47827    -0.64209,24.80673      121.0488      72.20195,0.21777   -0.075195  -0.0080872,-42,6.25,
21:51:03:87,3879,0.9952   0.0010689   -0.011779    0.097114,-0.027328   0.0030575    0.013954,-0.0091871     -1.35532      11.1469,0.33594    -0.38794    0.038452,24.80673      121.0488      72.18204,0.21863   -0.077759   -0.022537,-42,6.25,
21:51:04:17,3880,0.99518   0.0011842   -0.012741    0.097205,-0.038696  -0.0069275  -0.0047684,-0.00687996     -1.46635      11.1575,-0.1167      1.0225     0.53174,24.80673      121.0488      72.20631,0.21375   -0.065857   -0.018082,-42,6.25,
21:51:04:49,3881,0.99518   0.0018474   -0.012141    0.097249,-0.010681    0.013153  -0.0096741,0.0753975     -1.40528      11.1615,0.29883    -0.62109    -0.95166,24.80673      121.0488      72.18896,0.2334   -0.072021   -0.018555,-42,6,
